onset	duration	trial_id	trial_type	image_id	rating_value	red	green	blue	gram	protein	fat	carb
10.018	4.005	1	valuation	24	2	237.950762962963	227.837792592593	217.216607407407	400	6	19.2	60
14.023	0.814	1	rating	24	2	237.950762962963	227.837792592593	217.216607407407	400	6	19.2	60
14.837	0	1	response	24	2	237.950762962963	227.837792592593	217.216607407407	400	6	19.2	60
14.837	0.5	1	feedback	24	2	237.950762962963	227.837792592593	217.216607407407	400	6	19.2	60
18.051	4.004	2	valuation	525	1	230.031614814815	199.476592592593	164.767181481481	7.5	1.08	4.6875	0.795
22.055	0.690000000000001	2	rating	525	1	230.031614814815	199.476592592593	164.767181481481	7.5	1.08	4.6875	0.795
22.745	0	2	response	525	1	230.031614814815	199.476592592593	164.767181481481	7.5	1.08	4.6875	0.795
22.745	0.5	2	feedback	525	1	230.031614814815	199.476592592593	164.767181481481	7.5	1.08	4.6875	0.795
28.687	4.006	3	valuation	282	3	248.5747	242.486874074074	227.301066666667	200	2	0.24	28.6
32.693	0.498000000000005	3	rating	282	3	248.5747	242.486874074074	227.301066666667	200	2	0.24	28.6
33.191	0	3	response	282	3	248.5747	242.486874074074	227.301066666667	200	2	0.24	28.6
33.191	0.5	3	feedback	282	3	248.5747	242.486874074074	227.301066666667	200	2	0.24	28.6
39.038	4.004	4	valuation	184	2	229.436533333333	217.155248148148	204.94587037037	170	11.56	57.12	85.51
43.042	0.555	4	rating	184	2	229.436533333333	217.155248148148	204.94587037037	170	11.56	57.12	85.51
43.597	0	4	response	184	2	229.436533333333	217.155248148148	204.94587037037	170	11.56	57.12	85.51
43.597	0.5	4	feedback	184	2	229.436533333333	217.155248148148	204.94587037037	170	11.56	57.12	85.51
46.138	4.004	5	valuation	401	2	249.7563	237.292185185185	234.866381481482	10	0.19	0.04	0.88
50.142	0.625	5	rating	401	2	249.7563	237.292185185185	234.866381481482	10	0.19	0.04	0.88
50.767	0	5	response	401	2	249.7563	237.292185185185	234.866381481482	10	0.19	0.04	0.88
50.767	0.5	5	feedback	401	2	249.7563	237.292185185185	234.866381481482	10	0.19	0.04	0.88
57.221	4.004	6	valuation	523	3	231.052318518518	216.852922222222	206.370418518518	160	8	24	64
61.225	0.522999999999996	6	rating	523	3	231.052318518518	216.852922222222	206.370418518518	160	8	24	64
61.748	0	6	response	523	3	231.052318518518	216.852922222222	206.370418518518	160	8	24	64
61.748	0.5	6	feedback	523	3	231.052318518518	216.852922222222	206.370418518518	160	8	24	64
64.42	4.005	7	valuation	255	2	245.8923	229.223211111111	226.338888888889	150	0.36	0.315	8.76
68.425	0.62700000000001	7	rating	255	2	245.8923	229.223211111111	226.338888888889	150	0.36	0.315	8.76
69.052	0	7	response	255	2	245.8923	229.223211111111	226.338888888889	150	0.36	0.315	8.76
69.052	0.5	7	feedback	255	2	245.8923	229.223211111111	226.338888888889	150	0.36	0.315	8.76
76.161	4.004	8	valuation	534	3	241.210433333333	235.60722962963	202.995262962963	130	1.04	0.546	16.38
80.165	0.492999999999995	8	rating	534	3	241.210433333333	235.60722962963	202.995262962963	130	1.04	0.546	16.38
80.658	0	8	response	534	3	241.210433333333	235.60722962963	202.995262962963	130	1.04	0.546	16.38
80.658	0.5	8	feedback	534	3	241.210433333333	235.60722962963	202.995262962963	130	1.04	0.546	16.38
86.724	4.003	9	valuation	418	2	243.272259259259	237.956851851852	227.336403703704	1000	24.6	2.8	23.4
90.727	0.558999999999997	9	rating	418	2	243.272259259259	237.956851851852	227.336403703704	1000	24.6	2.8	23.4
91.286	0	9	response	418	2	243.272259259259	237.956851851852	227.336403703704	1000	24.6	2.8	23.4
91.286	0.5	9	feedback	418	2	243.272259259259	237.956851851852	227.336403703704	1000	24.6	2.8	23.4
99.599	4.006	10	valuation	122	3	235.540674074074	222.843977777778	193.680155555556	100	5.4	18.5	33.5
103.605	0.554000000000002	10	rating	122	3	235.540674074074	222.843977777778	193.680155555556	100	5.4	18.5	33.5
104.159	0	10	response	122	3	235.540674074074	222.843977777778	193.680155555556	100	5.4	18.5	33.5
104.159	0.5	10	feedback	122	3	235.540674074074	222.843977777778	193.680155555556	100	5.4	18.5	33.5
107.484	4.012	11	valuation	54	3	230.317233333333	217.095607407407	192.581888888889	500	143.5	150	0
111.496	0.691000000000003	11	rating	54	3	230.317233333333	217.095607407407	192.581888888889	500	143.5	150	0
112.187	0	11	response	54	3	230.317233333333	217.095607407407	192.581888888889	500	143.5	150	0
112.187	0.5	11	feedback	54	3	230.317233333333	217.095607407407	192.581888888889	500	143.5	150	0
116.025	4.005	12	valuation	297	2	240.370292592593	234.992296296296	226.224144444444	14	1.4196	3.6904	8.519
120.03	0.498000000000005	12	rating	297	2	240.370292592593	234.992296296296	226.224144444444	14	1.4196	3.6904	8.519
120.528	0	12	response	297	2	240.370292592593	234.992296296296	226.224144444444	14	1.4196	3.6904	8.519
120.528	0.5	12	feedback	297	2	240.370292592593	234.992296296296	226.224144444444	14	1.4196	3.6904	8.519
127.916	4.00300000000001	13	valuation	69	3	231.089803703704	215.682885185185	191.383751851852	200	19.56	16.54	58.26
131.919	0.569999999999993	13	rating	69	3	231.089803703704	215.682885185185	191.383751851852	200	19.56	16.54	58.26
132.489	0	13	response	69	3	231.089803703704	215.682885185185	191.383751851852	200	19.56	16.54	58.26
132.489	0.5	13	feedback	69	3	231.089803703704	215.682885185185	191.383751851852	200	19.56	16.54	58.26
139.211	4.006	14	valuation	410	1	234.31097037037	214.737685185185	193.043496296296	300	75.9	144.3	24.9
143.217	0.780000000000001	14	rating	410	1	234.31097037037	214.737685185185	193.043496296296	300	75.9	144.3	24.9
143.997	0	14	response	410	1	234.31097037037	214.737685185185	193.043496296296	300	75.9	144.3	24.9
143.997	0.5	14	feedback	410	1	234.31097037037	214.737685185185	193.043496296296	300	75.9	144.3	24.9
152.411	4.006	15	valuation	563	4	205.155837037037	178.38022962963	167.458940740741	210	39.9	6.09	2.73
156.417	0.562000000000012	15	rating	563	4	205.155837037037	178.38022962963	167.458940740741	210	39.9	6.09	2.73
156.979	0	15	response	563	4	205.155837037037	178.38022962963	167.458940740741	210	39.9	6.09	2.73
156.979	0.5	15	feedback	563	4	205.155837037037	178.38022962963	167.458940740741	210	39.9	6.09	2.73
161.493	4.02000000000001	16	valuation	28	4	230.415522222222	220.993285185185	214.040340740741	150	6.03	2.82	45.87
165.513	0.572000000000003	16	rating	28	4	230.415522222222	220.993285185185	214.040340740741	150	6.03	2.82	45.87
166.085	0	16	response	28	4	230.415522222222	220.993285185185	214.040340740741	150	6.03	2.82	45.87
166.085	0.5	16	feedback	28	4	230.415522222222	220.993285185185	214.040340740741	150	6.03	2.82	45.87
171.778	4.00400000000002	17	valuation	461	2	216.267459259259	210.025503703704	199.451151851852	1943	34.3911	4.6632	46.4377
175.782	0.772999999999996	17	rating	461	2	216.267459259259	210.025503703704	199.451151851852	1943	34.3911	4.6632	46.4377
176.555	0	17	response	461	2	216.267459259259	210.025503703704	199.451151851852	1943	34.3911	4.6632	46.4377
176.555	0.5	17	feedback	461	2	216.267459259259	210.025503703704	199.451151851852	1943	34.3911	4.6632	46.4377
180.029	4.018	18	valuation	39	3	242.140485185185	232.662303703704	217.434285185185	150	6.03	2.82	45.87
184.047	0.528999999999996	18	rating	39	3	242.140485185185	232.662303703704	217.434285185185	150	6.03	2.82	45.87
184.576	0	18	response	39	3	242.140485185185	232.662303703704	217.434285185185	150	6.03	2.82	45.87
184.576	0.5	18	feedback	39	3	242.140485185185	232.662303703704	217.434285185185	150	6.03	2.82	45.87
192.747	4.00599999999997	19	valuation	493	4	214.18657037037	193.589940740741	182.915685185185	590	50.917	66.434	109.504
196.753	0.610000000000014	19	rating	493	4	214.18657037037	193.589940740741	182.915685185185	590	50.917	66.434	109.504
197.363	0	19	response	493	4	214.18657037037	193.589940740741	182.915685185185	590	50.917	66.434	109.504
197.363	0.5	19	feedback	493	4	214.18657037037	193.589940740741	182.915685185185	590	50.917	66.434	109.504
203.561	4.00399999999999	20	valuation	48	3	225.469518518518	207.606522222222	178.779862962963	320	25.088	36.992	119.392
207.565	0.574999999999989	20	rating	48	3	225.469518518518	207.606522222222	178.779862962963	320	25.088	36.992	119.392
208.14	0	20	response	48	3	225.469518518518	207.606522222222	178.779862962963	320	25.088	36.992	119.392
208.14	0.5	20	feedback	48	3	225.469518518518	207.606522222222	178.779862962963	320	25.088	36.992	119.392
212.274	4.00399999999999	21	valuation	562	4	231.3686	211.666466666667	195.852359259259	300	66	15	0
216.278	0.579000000000008	21	rating	562	4	231.3686	211.666466666667	195.852359259259	300	66	15	0
216.857	0	21	response	562	4	231.3686	211.666466666667	195.852359259259	300	66	15	0
216.857	0.5	21	feedback	562	4	231.3686	211.666466666667	195.852359259259	300	66	15	0
221.499	4.00700000000001	22	valuation	198	2	223.65782962963	215.853659259259	190.91702962963	500	6.1	1.85	24.35
225.506	0.542000000000002	22	rating	198	2	223.65782962963	215.853659259259	190.91702962963	500	6.1	1.85	24.35
226.048	0	22	response	198	2	223.65782962963	215.853659259259	190.91702962963	500	6.1	1.85	24.35
226.048	0.5	22	feedback	198	2	223.65782962963	215.853659259259	190.91702962963	500	6.1	1.85	24.35
233.952	4.00999999999999	23	valuation	202	2	200.061351851852	199.171555555556	199.325985185185	50	0.3	0.3	3.65
237.962	0.523000000000025	23	rating	202	2	200.061351851852	199.171555555556	199.325985185185	50	0.3	0.3	3.65
238.485	0	23	response	202	2	200.061351851852	199.171555555556	199.325985185185	50	0.3	0.3	3.65
238.485	0.5	23	feedback	202	2	200.061351851852	199.171555555556	199.325985185185	50	0.3	0.3	3.65
245.462	4.00400000000002	24	valuation	177	2	242.407581481482	227.46987037037	213.553496296296	100	5.5	16.5	71.8
249.466	0.61099999999999	24	rating	177	2	242.407581481482	227.46987037037	213.553496296296	100	5.5	16.5	71.8
250.077	0	24	response	177	2	242.407581481482	227.46987037037	213.553496296296	100	5.5	16.5	71.8
250.077	0.5	24	feedback	177	2	242.407581481482	227.46987037037	213.553496296296	100	5.5	16.5	71.8
254.446	4.00300000000001	25	valuation	179	3	210.192144444444	193.826733333333	179.006907407407	450	23.85	99	217.35
258.449	0.543000000000006	25	rating	179	3	210.192144444444	193.826733333333	179.006907407407	450	23.85	99	217.35
258.992	0	25	response	179	3	210.192144444444	193.826733333333	179.006907407407	450	23.85	99	217.35
258.992	0.5	25	feedback	179	3	210.192144444444	193.826733333333	179.006907407407	450	23.85	99	217.35
263.905	4.00400000000002	26	valuation	507	4	233.177322222222	203.979048148148	156.710403703704	115	5.405	26.68	49.335
267.909	0.506000000000029	26	rating	507	4	233.177322222222	203.979048148148	156.710403703704	115	5.405	26.68	49.335
268.415	0	26	response	507	4	233.177322222222	203.979048148148	156.710403703704	115	5.405	26.68	49.335
268.415	0.5	26	feedback	507	4	233.177322222222	203.979048148148	156.710403703704	115	5.405	26.68	49.335
276.056	4.00700000000001	27	valuation	357	4	221.648362962963	206.562155555556	200.983548148148	1080	32.4	162	410.4
280.063	0.605000000000018	27	rating	357	4	221.648362962963	206.562155555556	200.983548148148	1080	32.4	162	410.4
280.668	0	27	response	357	4	221.648362962963	206.562155555556	200.983548148148	1080	32.4	162	410.4
280.668	0.5	27	feedback	357	4	221.648362962963	206.562155555556	200.983548148148	1080	32.4	162	410.4
285.821	4.005	28	valuation	94	2	243.745288888889	239.157314814815	235.405933333333	100	0.1	0.1	84.4
289.826	0.58499999999998	28	rating	94	2	243.745288888889	239.157314814815	235.405933333333	100	0.1	0.1	84.4
290.411	0	28	response	94	2	243.745288888889	239.157314814815	235.405933333333	100	0.1	0.1	84.4
290.411	0.5	28	feedback	94	2	243.745288888889	239.157314814815	235.405933333333	100	0.1	0.1	84.4
295.171	4.00400000000002	29	valuation	253	1	220.4769	228.2706	204.946774074074	225	1.44	0.405	4.095
299.175	0.59699999999998	29	rating	253	1	220.4769	228.2706	204.946774074074	225	1.44	0.405	4.095
299.772	0	29	response	253	1	220.4769	228.2706	204.946774074074	225	1.44	0.405	4.095
299.772	0.5	29	feedback	253	1	220.4769	228.2706	204.946774074074	225	1.44	0.405	4.095
307.301	4.01100000000002	30	valuation	201	2	194.658677777778	195.348214814815	171.040111111111	50	1.3	0.15	1.95
311.312	0.668000000000006	30	rating	201	2	194.658677777778	195.348214814815	171.040111111111	50	1.3	0.15	1.95
311.98	0	30	response	201	2	194.658677777778	195.348214814815	171.040111111111	50	1.3	0.15	1.95
311.98	0.5	30	feedback	201	2	194.658677777778	195.348214814815	171.040111111111	50	1.3	0.15	1.95
318.565	4.00299999999999	31	valuation	524	3	248.078725925926	244.485581481481	238.675759259259	163	4.401	14.018	38.305
322.568	0.524000000000001	31	rating	524	3	248.078725925926	244.485581481481	238.675759259259	163	4.401	14.018	38.305
323.092	0	31	response	524	3	248.078725925926	244.485581481481	238.675759259259	163	4.401	14.018	38.305
323.092	0.5	31	feedback	524	3	248.078725925926	244.485581481481	238.675759259259	163	4.401	14.018	38.305
328.503	4.005	32	valuation	375	3	231.285433333333	216.0187	196.0478	74	4.144	22.644	33.152
332.508	0.550000000000011	32	rating	375	3	231.285433333333	216.0187	196.0478	74	4.144	22.644	33.152
333.058	0	32	response	375	3	231.285433333333	216.0187	196.0478	74	4.144	22.644	33.152
333.058	0.5	32	feedback	375	3	231.285433333333	216.0187	196.0478	74	4.144	22.644	33.152
339.4	4.00400000000002	33	valuation	393	2	245.846081481481	235.4353	181.740533333333	2000	20	1.8	254
343.404	0.50200000000001	33	rating	393	2	245.846081481481	235.4353	181.740533333333	2000	20	1.8	254
343.906	0	33	response	393	2	245.846081481481	235.4353	181.740533333333	2000	20	1.8	254
343.906	0.5	33	feedback	393	2	245.846081481481	235.4353	181.740533333333	2000	20	1.8	254
352.468	4.01099999999997	34	valuation	242	2	224.179066666667	218.207592592593	196.53022962963	670	3.819	1.34	20.234
356.479	0.735000000000014	34	rating	242	2	224.179066666667	218.207592592593	196.53022962963	670	3.819	1.34	20.234
357.214	0	34	response	242	2	224.179066666667	218.207592592593	196.53022962963	670	3.819	1.34	20.234
357.214	0.5	34	feedback	242	2	224.179066666667	218.207592592593	196.53022962963	670	3.819	1.34	20.234
364.455	4.00400000000002	35	valuation	365	3	251.802366666667	224.585788888889	190.601740740741	340	2.448	0.476	22.508
368.459	0.827999999999975	35	rating	365	3	251.802366666667	224.585788888889	190.601740740741	340	2.448	0.476	22.508
369.287	0	35	response	365	3	251.802366666667	224.585788888889	190.601740740741	340	2.448	0.476	22.508
369.287	0.5	35	feedback	365	3	251.802366666667	224.585788888889	190.601740740741	340	2.448	0.476	22.508
373.528	4.00399999999996	36	valuation	225	2	227.461903703704	225.681551851852	215.026066666667	28	3.45996	0.2184	6.692
377.532	0.55600000000004	36	rating	225	2	227.461903703704	225.681551851852	215.026066666667	28	3.45996	0.2184	6.692
378.088	0	36	response	225	2	227.461903703704	225.681551851852	215.026066666667	28	3.45996	0.2184	6.692
378.088	0.5	36	feedback	225	2	227.461903703704	225.681551851852	215.026066666667	28	3.45996	0.2184	6.692
382.087	4.00400000000002	37	valuation	411	2	211.580766666667	201.367574074074	172.838374074074	380	13.414	1.444	19
386.091	0.659999999999968	37	rating	411	2	211.580766666667	201.367574074074	172.838374074074	380	13.414	1.444	19
386.751	0	37	response	411	2	211.580766666667	201.367574074074	172.838374074074	380	13.414	1.444	19
386.751	0.5	37	feedback	411	2	211.580766666667	201.367574074074	172.838374074074	380	13.414	1.444	19
389.7	4.00600000000003	38	valuation	276	1	242.81227037037	235.762537037037	194.053281481481	262.5	1.18125	0.9975	13.57125
393.706	0.593999999999994	38	rating	276	1	242.81227037037	235.762537037037	194.053281481481	262.5	1.18125	0.9975	13.57125
394.3	0	38	response	276	1	242.81227037037	235.762537037037	194.053281481481	262.5	1.18125	0.9975	13.57125
394.3	0.5	38	feedback	276	1	242.81227037037	235.762537037037	194.053281481481	262.5	1.18125	0.9975	13.57125
399.842	4.00400000000002	39	valuation	43	4	245.816162962963	226.076507407407	162.769114814815	20	1.096	7.88	8.12
403.846	0.46999999999997	39	rating	43	4	245.816162962963	226.076507407407	162.769114814815	20	1.096	7.88	8.12
404.316	0	39	response	43	4	245.816162962963	226.076507407407	162.769114814815	20	1.096	7.88	8.12
404.316	0.5	39	feedback	43	4	245.816162962963	226.076507407407	162.769114814815	20	1.096	7.88	8.12
411.164	4.00400000000002	40	valuation	363	2	242.981414814815	230.048177777778	213.991896296296	200	12	26	88
415.168	0.724999999999966	40	rating	363	2	242.981414814815	230.048177777778	213.991896296296	200	12	26	88
415.893	0	40	response	363	2	242.981414814815	230.048177777778	213.991896296296	200	12	26	88
415.893	0.5	40	feedback	363	2	242.981414814815	230.048177777778	213.991896296296	200	12	26	88
418.698	4.005	41	valuation	134	3	233.039818518519	219.986803703704	203.065248148148	75	4.65	15.525	36.75
422.703	0.505000000000052	41	rating	134	3	233.039818518519	219.986803703704	203.065248148148	75	4.65	15.525	36.75
423.208	0	41	response	134	3	233.039818518519	219.986803703704	203.065248148148	75	4.65	15.525	36.75
423.208	0.5	41	feedback	134	3	233.039818518519	219.986803703704	203.065248148148	75	4.65	15.525	36.75
426.828	6.524	42	miss	121	0	241.824925925926	230.59102962963	217.331840740741	10	0.68	3.057	5.332
436.567	4.01900000000001	43	valuation	385	1	245.082577777778	237.646314814815	222.607103703704	250	10.25	5.25	82.5
440.586	0.490999999999985	43	rating	385	1	245.082577777778	237.646314814815	222.607103703704	250	10.25	5.25	82.5
441.077	0	43	response	385	1	245.082577777778	237.646314814815	222.607103703704	250	10.25	5.25	82.5
441.077	0.5	43	feedback	385	1	245.082577777778	237.646314814815	222.607103703704	250	10.25	5.25	82.5
444.145	4.00400000000002	44	valuation	362	2	206.639866666667	195.098877777778	175.54102962963	120	2.4	0.24	3.72
448.149	0.550999999999988	44	rating	362	2	206.639866666667	195.098877777778	175.54102962963	120	2.4	0.24	3.72
448.7	0	44	response	362	2	206.639866666667	195.098877777778	175.54102962963	120	2.4	0.24	3.72
448.7	0.5	44	feedback	362	2	206.639866666667	195.098877777778	175.54102962963	120	2.4	0.24	3.72
456.723	4.00399999999996	45	valuation	378	2	245.6192	237.550818518518	222.0697	500	55.5	40	102
460.727	0.474000000000046	45	rating	378	2	245.6192	237.550818518518	222.0697	500	55.5	40	102
461.201	0	45	response	378	2	245.6192	237.550818518518	222.0697	500	55.5	40	102
461.201	0.5	45	feedback	378	2	245.6192	237.550818518518	222.0697	500	55.5	40	102
466.23	4.00999999999999	46	valuation	248	3	224.806459259259	224.496444444444	225.375659259259	60	0.36	0.36	4.38
470.24	0.613	46	rating	248	3	224.806459259259	224.496444444444	225.375659259259	60	0.36	0.36	4.38
470.853	0	46	response	248	3	224.806459259259	224.496444444444	225.375659259259	60	0.36	0.36	4.38
470.853	0.5	46	feedback	248	3	224.806459259259	224.496444444444	225.375659259259	60	0.36	0.36	4.38
478.613	4.00700000000001	47	valuation	502	3	228.088985185185	216.029688888889	188.214248148148	35	2.555	0.07	2.8
482.62	0.656000000000006	47	rating	502	3	228.088985185185	216.029688888889	188.214248148148	35	2.555	0.07	2.8
483.276	0	47	response	502	3	228.088985185185	216.029688888889	188.214248148148	35	2.555	0.07	2.8
483.276	0.5	47	feedback	502	3	228.088985185185	216.029688888889	188.214248148148	35	2.555	0.07	2.8
