onset	duration	trial_id	trial_type	image_id	rating_value	red	green	blue	gram	protein	fat	carb
10.02	4.003	1	valuation	274	3	216.618640740741	231.883585185185	202.364651851852	100	2.52	0.3	0.55
14.023	0.771000000000001	1	rating	274	3	216.618640740741	231.883585185185	202.364651851852	100	2.52	0.3	0.55
14.794	0	1	response	274	3	216.618640740741	231.883585185185	202.364651851852	100	2.52	0.3	0.55
14.794	0.5	1	feedback	274	3	216.618640740741	231.883585185185	202.364651851852	100	2.52	0.3	0.55
22.313	4.003	2	valuation	507	3	233.177322222222	203.979048148148	156.710403703704	115	5.405	26.68	49.335
26.316	0.678000000000001	2	rating	507	3	233.177322222222	203.979048148148	156.710403703704	115	5.405	26.68	49.335
26.994	0	2	response	507	3	233.177322222222	203.979048148148	156.710403703704	115	5.405	26.68	49.335
26.994	0.5	2	feedback	507	3	233.177322222222	203.979048148148	156.710403703704	115	5.405	26.68	49.335
29.538	4.005	3	valuation	332	3	219.616477777778	209.735259259259	178.231551851852	230	2.668	0.322	4.002
33.543	0.616	3	rating	332	3	219.616477777778	209.735259259259	178.231551851852	230	2.668	0.322	4.002
34.159	0	3	response	332	3	219.616477777778	209.735259259259	178.231551851852	230	2.668	0.322	4.002
34.159	0.5	3	feedback	332	3	219.616477777778	209.735259259259	178.231551851852	230	2.668	0.322	4.002
41.116	4.004	4	valuation	502	4	228.088985185185	216.029688888889	188.214248148148	35	2.555	0.07	2.8
45.12	0.802	4	rating	502	4	228.088985185185	216.029688888889	188.214248148148	35	2.555	0.07	2.8
45.922	0	4	response	502	4	228.088985185185	216.029688888889	188.214248148148	35	2.555	0.07	2.8
45.922	0.5	4	feedback	502	4	228.088985185185	216.029688888889	188.214248148148	35	2.555	0.07	2.8
52.922	4.004	5	valuation	342	2	202.271148148148	204.320740740741	175.546944444444	750	15	0.9	19.5
56.926	0.594000000000001	5	rating	342	2	202.271148148148	204.320740740741	175.546944444444	750	15	0.9	19.5
57.52	0	5	response	342	2	202.271148148148	204.320740740741	175.546944444444	750	15	0.9	19.5
57.52	0.5	5	feedback	342	2	202.271148148148	204.320740740741	175.546944444444	750	15	0.9	19.5
65.542	4.005	6	valuation	306	3	234.096081481481	192.577996296296	157.746648148148	230	4.6	15.433	27.83
69.547	0.918999999999997	6	rating	306	3	234.096081481481	192.577996296296	157.746648148148	230	4.6	15.433	27.83
70.466	0	6	response	306	3	234.096081481481	192.577996296296	157.746648148148	230	4.6	15.433	27.83
70.466	0.5	6	feedback	306	3	234.096081481481	192.577996296296	157.746648148148	230	4.6	15.433	27.83
76.448	4.00500000000001	7	valuation	548	4	248.893596296296	200.777996296296	179.584162962963	400	76	12	4
80.453	1.053	7	rating	548	4	248.893596296296	200.777996296296	179.584162962963	400	76	12	4
81.506	0	7	response	548	4	248.893596296296	200.777996296296	179.584162962963	400	76	12	4
81.506	0.5	7	feedback	548	4	248.893596296296	200.777996296296	179.584162962963	400	76	12	4
89.785	4.004	8	valuation	483	4	223.797618518518	207.292855555556	198.715448148148	340	19.38	24.82	48.28
93.789	0.554999999999993	8	rating	483	4	223.797618518518	207.292855555556	198.715448148148	340	19.38	24.82	48.28
94.344	0	8	response	483	4	223.797618518518	207.292855555556	198.715448148148	340	19.38	24.82	48.28
94.344	0.5	8	feedback	483	4	223.797618518518	207.292855555556	198.715448148148	340	19.38	24.82	48.28
100.093	4.00399999999999	9	valuation	525	1	230.031614814815	199.476592592593	164.767181481481	7.5	1.08	4.6875	0.795
104.097	0.712000000000003	9	rating	525	1	230.031614814815	199.476592592593	164.767181481481	7.5	1.08	4.6875	0.795
104.809	0	9	response	525	1	230.031614814815	199.476592592593	164.767181481481	7.5	1.08	4.6875	0.795
104.809	0.5	9	feedback	525	1	230.031614814815	199.476592592593	164.767181481481	7.5	1.08	4.6875	0.795
112.578	4.00699999999999	10	valuation	437	3	227.362862962963	208.736588888889	193.066466666667	800	16	0.88	118.4
116.585	1.24000000000001	10	rating	437	3	227.362862962963	208.736588888889	193.066466666667	800	16	0.88	118.4
117.825	0	10	response	437	3	227.362862962963	208.736588888889	193.066466666667	800	16	0.88	118.4
117.825	0.5	10	feedback	437	3	227.362862962963	208.736588888889	193.066466666667	800	16	0.88	118.4
123.168	4.00399999999999	11	valuation	345	4	220.265922222222	208.838985185185	194.713825925926	640	4.48	1.92	99.84
127.172	0.823000000000008	11	rating	345	4	220.265922222222	208.838985185185	194.713825925926	640	4.48	1.92	99.84
127.995	0	11	response	345	4	220.265922222222	208.838985185185	194.713825925926	640	4.48	1.92	99.84
127.995	0.5	11	feedback	345	4	220.265922222222	208.838985185185	194.713825925926	640	4.48	1.92	99.84
131.422	4.00399999999999	12	valuation	321	4	244.035311111111	236.397792592593	226.841944444444	50	6.5	5.55	0.35
135.426	0.677000000000021	12	rating	321	4	244.035311111111	236.397792592593	226.841944444444	50	6.5	5.55	0.35
136.103	0	12	response	321	4	244.035311111111	236.397792592593	226.841944444444	50	6.5	5.55	0.35
136.103	0.5	12	feedback	321	4	244.035311111111	236.397792592593	226.841944444444	50	6.5	5.55	0.35
139.169	4.00399999999999	13	valuation	188	4	220.4578	193.576392592593	174.867218518518	350	42.385	17.185	85.085
143.173	0.63900000000001	13	rating	188	4	220.4578	193.576392592593	174.867218518518	350	42.385	17.185	85.085
143.812	0	13	response	188	4	220.4578	193.576392592593	174.867218518518	350	42.385	17.185	85.085
143.812	0.5	13	feedback	188	4	220.4578	193.576392592593	174.867218518518	350	42.385	17.185	85.085
148.005	4.005	14	valuation	200	2	240.261533333333	228.197455555556	202.091514814815	560	4.032	0.784	37.072
152.01	1.28100000000001	14	rating	200	2	240.261533333333	228.197455555556	202.091514814815	560	4.032	0.784	37.072
153.291	0	14	response	200	2	240.261533333333	228.197455555556	202.091514814815	560	4.032	0.784	37.072
153.291	0.5	14	feedback	200	2	240.261533333333	228.197455555556	202.091514814815	560	4.032	0.784	37.072
157.11	4.00399999999999	15	valuation	113	3	244.297966666667	235.758511111111	212.079688888889	30	1.8	10.5	14.7
161.114	0.656000000000006	15	rating	113	3	244.297966666667	235.758511111111	212.079688888889	30	1.8	10.5	14.7
161.77	0	15	response	113	3	244.297966666667	235.758511111111	212.079688888889	30	1.8	10.5	14.7
161.77	0.5	15	feedback	113	3	244.297966666667	235.758511111111	212.079688888889	30	1.8	10.5	14.7
166.475	4.00400000000002	16	valuation	501	4	222.844892592593	203.470518518518	188.602844444444	32	1.504	8.96	17.28
170.479	0.513999999999982	16	rating	501	4	222.844892592593	203.470518518518	188.602844444444	32	1.504	8.96	17.28
170.993	0	16	response	501	4	222.844892592593	203.470518518518	188.602844444444	32	1.504	8.96	17.28
170.993	0.5	16	feedback	501	4	222.844892592593	203.470518518518	188.602844444444	32	1.504	8.96	17.28
178.888	4.005	17	valuation	207	4	236.945751851852	222.32802962963	217.782514814815	50	0.55	0.1	3.6
182.893	0.822000000000003	17	rating	207	4	236.945751851852	222.32802962963	217.782514814815	50	0.55	0.1	3.6
183.715	0	17	response	207	4	236.945751851852	222.32802962963	217.782514814815	50	0.55	0.1	3.6
183.715	0.5	17	feedback	207	4	236.945751851852	222.32802962963	217.782514814815	50	0.55	0.1	3.6
186.532	4.005	18	valuation	415	1	250.976948148148	237.290459259259	168.683474074074	184	0.828	0.6992	9.5128
190.537	0.668000000000006	18	rating	415	1	250.976948148148	237.290459259259	168.683474074074	184	0.828	0.6992	9.5128
191.205	0	18	response	415	1	250.976948148148	237.290459259259	168.683474074074	184	0.828	0.6992	9.5128
191.205	0.5	18	feedback	415	1	250.976948148148	237.290459259259	168.683474074074	184	0.828	0.6992	9.5128
194.788	4.005	19	valuation	516	3	246.259725925926	224.502585185185	202.23197037037	180	41.4	54	0
198.793	1.036	19	rating	516	3	246.259725925926	224.502585185185	202.23197037037	180	41.4	54	0
199.829	0	19	response	516	3	246.259725925926	224.502585185185	202.23197037037	180	41.4	54	0
199.829	0.5	19	feedback	516	3	246.259725925926	224.502585185185	202.23197037037	180	41.4	54	0
206.448	4.00399999999999	20	valuation	386	2	237.719740740741	229.815822222222	191.553751851852	350	1.295	0.245	6.055
210.452	1.351	20	rating	386	2	237.719740740741	229.815822222222	191.553751851852	350	1.295	0.245	6.055
211.803	0	20	response	386	2	237.719740740741	229.815822222222	191.553751851852	350	1.295	0.245	6.055
211.803	0.5	20	feedback	386	2	237.719740740741	229.815822222222	191.553751851852	350	1.295	0.245	6.055
216.911	4.00399999999999	21	valuation	121	3	241.824925925926	230.59102962963	217.331840740741	10	0.68	3.057	5.332
220.915	1.09999999999999	21	rating	121	3	241.824925925926	230.59102962963	217.331840740741	10	0.68	3.057	5.332
222.015	0	21	response	121	3	241.824925925926	230.59102962963	217.331840740741	10	0.68	3.057	5.332
222.015	0.5	21	feedback	121	3	241.824925925926	230.59102962963	217.331840740741	10	0.68	3.057	5.332
225.698	4.00399999999999	22	valuation	529	3	208.136585185185	199.001888888889	165.4134	300	12	1.2	16.5
229.702	0.572000000000003	22	rating	529	3	208.136585185185	199.001888888889	165.4134	300	12	1.2	16.5
230.274	0	22	response	529	3	208.136585185185	199.001888888889	165.4134	300	12	1.2	16.5
230.274	0.5	22	feedback	529	3	208.136585185185	199.001888888889	165.4134	300	12	1.2	16.5
234.212	4.00500000000002	23	valuation	67	4	228.945522222222	220.155659259259	202.818633333333	150	4.5	7.5	45
238.217	0.95999999999998	23	rating	67	4	228.945522222222	220.155659259259	202.818633333333	150	4.5	7.5	45
239.177	0	23	response	67	4	228.945522222222	220.155659259259	202.818633333333	150	4.5	7.5	45
239.177	0.5	23	feedback	67	4	228.945522222222	220.155659259259	202.818633333333	150	4.5	7.5	45
247.329	4.005	24	valuation	505	4	228.170044444444	209.178259259259	184.446788888889	39	1.17	3.9	26.91
251.334	0.744	24	rating	505	4	228.170044444444	209.178259259259	184.446788888889	39	1.17	3.9	26.91
252.078	0	24	response	505	4	228.170044444444	209.178259259259	184.446788888889	39	1.17	3.9	26.91
252.078	0.5	24	feedback	505	4	228.170044444444	209.178259259259	184.446788888889	39	1.17	3.9	26.91
259.462	4.00600000000003	25	valuation	393	2	245.846081481481	235.4353	181.740533333333	2000	20	1.8	254
263.468	0.774999999999977	25	rating	393	2	245.846081481481	235.4353	181.740533333333	2000	20	1.8	254
264.243	0	25	response	393	2	245.846081481481	235.4353	181.740533333333	2000	20	1.8	254
264.243	0.5	25	feedback	393	2	245.846081481481	235.4353	181.740533333333	2000	20	1.8	254
270.507	4.00400000000002	26	valuation	330	3	238.498125925926	234.545148148148	229.275044444444	200	6	2	6
274.511	0.70599999999996	26	rating	330	3	238.498125925926	234.545148148148	229.275044444444	200	6	2	6
275.217	0	26	response	330	3	238.498125925926	234.545148148148	229.275044444444	200	6	2	6
275.217	0.5	26	feedback	330	3	238.498125925926	234.545148148148	229.275044444444	200	6	2	6
282.482	4.00399999999996	27	valuation	165	3	225.317955555556	214.999707407407	210.162355555556	40	2.24	11	22.92
286.486	0.706999999999994	27	rating	165	3	225.317955555556	214.999707407407	210.162355555556	40	2.24	11	22.92
287.193	0	27	response	165	3	225.317955555556	214.999707407407	210.162355555556	40	2.24	11	22.92
287.193	0.5	27	feedback	165	3	225.317955555556	214.999707407407	210.162355555556	40	2.24	11	22.92
292.046	4.00400000000002	28	valuation	496	2	244.259325925926	223.629277777778	217.411733333333	250	35	62.5	5
296.05	1.34399999999999	28	rating	496	2	244.259325925926	223.629277777778	217.411733333333	250	35	62.5	5
297.394	0	28	response	496	2	244.259325925926	223.629277777778	217.411733333333	250	35	62.5	5
297.394	0.5	28	feedback	496	2	244.259325925926	223.629277777778	217.411733333333	250	35	62.5	5
303.245	4.005	29	valuation	351	3	231.964922222222	205.086592592593	182.388911111111	65	4.602	21.8205	29.159
307.25	0.72399999999999	29	rating	351	3	231.964922222222	205.086592592593	182.388911111111	65	4.602	21.8205	29.159
307.974	0	29	response	351	3	231.964922222222	205.086592592593	182.388911111111	65	4.602	21.8205	29.159
307.974	0.5	29	feedback	351	3	231.964922222222	205.086592592593	182.388911111111	65	4.602	21.8205	29.159
312.581	4.005	30	valuation	196	2	206.006196296296	197.354396296296	175.3604	150	2.595	0.525	5.25
316.586	0.926999999999964	30	rating	196	2	206.006196296296	197.354396296296	175.3604	150	2.595	0.525	5.25
317.513	0	30	response	196	2	206.006196296296	197.354396296296	175.3604	150	2.595	0.525	5.25
317.513	0.5	30	feedback	196	2	206.006196296296	197.354396296296	175.3604	150	2.595	0.525	5.25
323.11	4.00399999999996	31	valuation	52	4	221.637525925926	199.60527037037	174.717081481481	115	10.5777	11.3735	30.23695
327.114	0.850000000000023	31	rating	52	4	221.637525925926	199.60527037037	174.717081481481	115	10.5777	11.3735	30.23695
327.964	0	31	response	52	4	221.637525925926	199.60527037037	174.717081481481	115	10.5777	11.3735	30.23695
327.964	0.5	31	feedback	52	4	221.637525925926	199.60527037037	174.717081481481	115	10.5777	11.3735	30.23695
331.264	4.00399999999996	32	valuation	484	4	211.337140740741	193.628922222222	178.162685185185	440	44.88	6.292	33.924
335.268	0.811000000000035	32	rating	484	4	211.337140740741	193.628922222222	178.162685185185	440	44.88	6.292	33.924
336.079	0	32	response	484	4	211.337140740741	193.628922222222	178.162685185185	440	44.88	6.292	33.924
336.079	0.5	32	feedback	484	4	211.337140740741	193.628922222222	178.162685185185	440	44.88	6.292	33.924
342.57	4.00400000000002	33	valuation	543	4	227.375385185185	233.356462962963	195.138307407407	500	3.5	1.5	78
346.574	0.57099999999997	33	rating	543	4	227.375385185185	233.356462962963	195.138307407407	500	3.5	1.5	78
347.145	0	33	response	543	4	227.375385185185	233.356462962963	195.138307407407	500	3.5	1.5	78
347.145	0.5	33	feedback	543	4	227.375385185185	233.356462962963	195.138307407407	500	3.5	1.5	78
350.062	4.00399999999996	34	valuation	19	2	236.933103703704	226.098122222222	213.87197037037	300	20.01	39.99	125.01
354.066	2.43400000000003	34	rating	19	2	236.933103703704	226.098122222222	213.87197037037	300	20.01	39.99	125.01
356.5	0	34	response	19	2	236.933103703704	226.098122222222	213.87197037037	300	20.01	39.99	125.01
356.5	0.5	34	feedback	19	2	236.933103703704	226.098122222222	213.87197037037	300	20.01	39.99	125.01
362.608	4.00400000000002	35	valuation	168	4	234.105851851852	222.37312962963	215.18542962963	34	2.176	9.894	20.57
366.612	0.82099999999997	35	rating	168	4	234.105851851852	222.37312962963	215.18542962963	34	2.176	9.894	20.57
367.433	0	35	response	168	4	234.105851851852	222.37312962963	215.18542962963	34	2.176	9.894	20.57
367.433	0.5	35	feedback	168	4	234.105851851852	222.37312962963	215.18542962963	34	2.176	9.894	20.57
371.501	4.00400000000002	36	valuation	178	3	239.681185185185	231.455796296296	222.511874074074	126	8.064	17.514	52.29
375.505	1.39499999999998	36	rating	178	3	239.681185185185	231.455796296296	222.511874074074	126	8.064	17.514	52.29
376.9	0	36	response	178	3	239.681185185185	231.455796296296	222.511874074074	126	8.064	17.514	52.29
376.9	0.5	36	feedback	178	3	239.681185185185	231.455796296296	222.511874074074	126	8.064	17.514	52.29
381.348	4.00399999999996	37	valuation	278	1	244.734581481481	245.248444444444	239.648692592593	130	2.938	0.364	3.432
385.352	1.51600000000002	37	rating	278	1	244.734581481481	245.248444444444	239.648692592593	130	2.938	0.364	3.432
386.868	0	37	response	278	1	244.734581481481	245.248444444444	239.648692592593	130	2.938	0.364	3.432
386.868	0.5	37	feedback	278	1	244.734581481481	245.248444444444	239.648692592593	130	2.938	0.364	3.432
390.042	4.00500000000005	38	valuation	12	4	216.015559259259	207.838151851852	191.304425925926	205	29.4585	42.23	10.086
394.047	1.73399999999998	38	rating	12	4	216.015559259259	207.838151851852	191.304425925926	205	29.4585	42.23	10.086
395.781	0	38	response	12	4	216.015559259259	207.838151851852	191.304425925926	205	29.4585	42.23	10.086
395.781	0.5	38	feedback	12	4	216.015559259259	207.838151851852	191.304425925926	205	29.4585	42.23	10.086
403.421	4.00400000000002	39	valuation	66	3	228.016977777778	204.47902962963	177.90227037037	150	7.8	28.2	53.85
407.425	1.61099999999999	39	rating	66	3	228.016977777778	204.47902962963	177.90227037037	150	7.8	28.2	53.85
409.036	0	39	response	66	3	228.016977777778	204.47902962963	177.90227037037	150	7.8	28.2	53.85
409.036	0.5	39	feedback	66	3	228.016977777778	204.47902962963	177.90227037037	150	7.8	28.2	53.85
415.807	4.00799999999998	40	valuation	235	2	233.06632962963	208.093485185185	191.518381481481	640	4.608	0.896	42.368
419.815	1.79500000000002	40	rating	235	2	233.06632962963	208.093485185185	191.518381481481	640	4.608	0.896	42.368
421.61	0	40	response	235	2	233.06632962963	208.093485185185	191.518381481481	640	4.608	0.896	42.368
421.61	0.5	40	feedback	235	2	233.06632962963	208.093485185185	191.518381481481	640	4.608	0.896	42.368
425.932	4.00399999999996	41	valuation	137	4	235.596192592593	223.724274074074	213.428074074074	75	4.65	15.525	36.75
429.936	0.849000000000046	41	rating	137	4	235.596192592593	223.724274074074	213.428074074074	75	4.65	15.525	36.75
430.785	0	41	response	137	4	235.596192592593	223.724274074074	213.428074074074	75	4.65	15.525	36.75
430.785	0.5	41	feedback	137	4	235.596192592593	223.724274074074	213.428074074074	75	4.65	15.525	36.75
439.342	4.005	42	valuation	405	1	225.487281481482	228.002303703704	203.845462962963	300	6	0.6	3
443.347	1.62800000000004	42	rating	405	1	225.487281481482	228.002303703704	203.845462962963	300	6	0.6	3
444.975	0	42	response	405	1	225.487281481482	228.002303703704	203.845462962963	300	6	0.6	3
444.975	0.5	42	feedback	405	1	225.487281481482	228.002303703704	203.845462962963	300	6	0.6	3
450.188	4.005	43	valuation	125	3	233.642818518518	233.168048148148	226.704066666667	250	2.5	0.75	237.5
454.193	1.411	43	rating	125	3	233.642818518518	233.168048148148	226.704066666667	250	2.5	0.75	237.5
455.604	0	43	response	125	3	233.642818518518	233.168048148148	226.704066666667	250	2.5	0.75	237.5
455.604	0.5	43	feedback	125	3	233.642818518518	233.168048148148	226.704066666667	250	2.5	0.75	237.5
458.263	4.00400000000002	44	valuation	553	3	233.132855555556	207.314462962963	194.290892592593	700	105	63	14
462.267	0.583000000000027	44	rating	553	3	233.132855555556	207.314462962963	194.290892592593	700	105	63	14
462.85	0	44	response	553	3	233.132855555556	207.314462962963	194.290892592593	700	105	63	14
462.85	0.5	44	feedback	553	3	233.132855555556	207.314462962963	194.290892592593	700	105	63	14
471.288	4.00900000000001	45	valuation	359	2	235.124337037037	234.318940740741	220.059733333333	1000	13.3	1	14.3
475.297	2.33499999999998	45	rating	359	2	235.124337037037	234.318940740741	220.059733333333	1000	13.3	1	14.3
477.632	0	45	response	359	2	235.124337037037	234.318940740741	220.059733333333	1000	13.3	1	14.3
477.632	0.5	45	feedback	359	2	235.124337037037	234.318940740741	220.059733333333	1000	13.3	1	14.3
482.611	4.005	46	valuation	472	4	231.892751851852	227.653685185185	221.137677777778	160	3.2	3.2	0.96
486.616	0.552000000000021	46	rating	472	4	231.892751851852	227.653685185185	221.137677777778	160	3.2	3.2	0.96
487.168	0	46	response	472	4	231.892751851852	227.653685185185	221.137677777778	160	3.2	3.2	0.96
487.168	0.5	46	feedback	472	4	231.892751851852	227.653685185185	221.137677777778	160	3.2	3.2	0.96
494.322	4.00400000000002	47	valuation	84	3	232.663366666667	225.3264	210.749925925926	450	26.55	94.5	234
498.326	1.40499999999997	47	rating	84	3	232.663366666667	225.3264	210.749925925926	450	26.55	94.5	234
499.731	0	47	response	84	3	232.663366666667	225.3264	210.749925925926	450	26.55	94.5	234
499.731	0.5	47	feedback	84	3	232.663366666667	225.3264	210.749925925926	450	26.55	94.5	234
506.094	4.005	48	valuation	277	2	231.970492592593	231.910992592593	217.665425925926	130	2.938	0.364	3.432
510.099	1.26499999999999	48	rating	277	2	231.970492592593	231.910992592593	217.665425925926	130	2.938	0.364	3.432
511.364	0	48	response	277	2	231.970492592593	231.910992592593	217.665425925926	130	2.938	0.364	3.432
511.364	0.5	48	feedback	277	2	231.970492592593	231.910992592593	217.665425925926	130	2.938	0.364	3.432
