onset	duration	trial_id	trial_type	image_id	rating_value	red	green	blue	gram	protein	fat	carb
10.03	4.003	1	valuation	518	4	243.764974074074	235.473407407407	230.149396296296	250	1.25	0	10
14.033	0.927000000000001	1	rating	518	4	243.764974074074	235.473407407407	230.149396296296	250	1.25	0	10
14.96	0	1	response	518	4	243.764974074074	235.473407407407	230.149396296296	250	1.25	0	10
14.96	0.5	1	feedback	518	4	243.764974074074	235.473407407407	230.149396296296	250	1.25	0	10
17.77	4.004	2	valuation	252	2	234.366414814815	236.86237037037	220.153803703704	300	2.4	0.48	3.78
21.774	0.840999999999998	2	rating	252	2	234.366414814815	236.86237037037	220.153803703704	300	2.4	0.48	3.78
22.615	0	2	response	252	2	234.366414814815	236.86237037037	220.153803703704	300	2.4	0.48	3.78
22.615	0.5	2	feedback	252	2	234.366414814815	236.86237037037	220.153803703704	300	2.4	0.48	3.78
25.307	4.004	3	valuation	426	1	223.031248148148	199.428640740741	181.220877777778	900	73.8	10.8	439.2
29.311	0.486000000000001	3	rating	426	1	223.031248148148	199.428640740741	181.220877777778	900	73.8	10.8	439.2
29.797	0	3	response	426	1	223.031248148148	199.428640740741	181.220877777778	900	73.8	10.8	439.2
29.797	0.5	3	feedback	426	1	223.031248148148	199.428640740741	181.220877777778	900	73.8	10.8	439.2
37.09	4.003	4	valuation	323	3	228.088137037037	220.723218518519	203.94212962963	377	54.0995	22.0168	19.4909
41.093	0.854999999999997	4	rating	323	3	228.088137037037	220.723218518519	203.94212962963	377	54.0995	22.0168	19.4909
41.948	0	4	response	323	3	228.088137037037	220.723218518519	203.94212962963	377	54.0995	22.0168	19.4909
41.948	0.5	4	feedback	323	3	228.088137037037	220.723218518519	203.94212962963	377	54.0995	22.0168	19.4909
46.709	4.004	5	valuation	310	4	242.471503703704	215.496444444444	180.650911111111	65	9.1455	2.548	34.099
50.713	1.165	5	rating	310	4	242.471503703704	215.496444444444	180.650911111111	65	9.1455	2.548	34.099
51.878	0	5	response	310	4	242.471503703704	215.496444444444	180.650911111111	65	9.1455	2.548	34.099
51.878	0.5	5	feedback	310	4	242.471503703704	215.496444444444	180.650911111111	65	9.1455	2.548	34.099
55.595	4.004	6	valuation	201	3	194.658677777778	195.348214814815	171.040111111111	50	1.3	0.15	1.95
59.599	1.94900000000001	6	rating	201	3	194.658677777778	195.348214814815	171.040111111111	50	1.3	0.15	1.95
61.548	0	6	response	201	3	194.658677777778	195.348214814815	171.040111111111	50	1.3	0.15	1.95
61.548	0.5	6	feedback	201	3	194.658677777778	195.348214814815	171.040111111111	50	1.3	0.15	1.95
69.841	4.00500000000001	7	valuation	226	1	238.889974074074	236.237140740741	230.784377777778	200	24	5	124
73.846	0.997	7	rating	226	1	238.889974074074	236.237140740741	230.784377777778	200	24	5	124
74.843	0	7	response	226	1	238.889974074074	236.237140740741	230.784377777778	200	24	5	124
74.843	0.5	7	feedback	226	1	238.889974074074	236.237140740741	230.784377777778	200	24	5	124
82.213	4.00500000000001	8	valuation	412	2	242.19412962963	233.376559259259	215.4649	200	4	0.22	29.6
86.218	0.573999999999998	8	rating	412	2	242.19412962963	233.376559259259	215.4649	200	4	0.22	29.6
86.792	0	8	response	412	2	242.19412962963	233.376559259259	215.4649	200	4	0.22	29.6
86.792	0.5	8	feedback	412	2	242.19412962963	233.376559259259	215.4649	200	4	0.22	29.6
91.814	4.004	9	valuation	141	4	234.212044444444	208.694414814815	187.429848148148	350	19.95	17.85	45.5
95.818	0.606999999999999	9	rating	141	4	234.212044444444	208.694414814815	187.429848148148	350	19.95	17.85	45.5
96.425	0	9	response	141	4	234.212044444444	208.694414814815	187.429848148148	350	19.95	17.85	45.5
96.425	0.5	9	feedback	141	4	234.212044444444	208.694414814815	187.429848148148	350	19.95	17.85	45.5
102.22	4.005	10	valuation	411	1	211.580766666667	201.367574074074	172.838374074074	380	13.414	1.444	19
106.225	1.77600000000001	10	rating	411	1	211.580766666667	201.367574074074	172.838374074074	380	13.414	1.444	19
108.001	0	10	response	411	1	211.580766666667	201.367574074074	172.838374074074	380	13.414	1.444	19
108.001	0.5	10	feedback	411	1	211.580766666667	201.367574074074	172.838374074074	380	13.414	1.444	19
110.564	4.004	11	valuation	478	3	242.122040740741	241.192381481481	235.459988888889	900	3.6	1.8	111.6
114.568	0.619	11	rating	478	3	242.122040740741	241.192381481481	235.459988888889	900	3.6	1.8	111.6
115.187	0	11	response	478	3	242.122040740741	241.192381481481	235.459988888889	900	3.6	1.8	111.6
115.187	0.5	11	feedback	478	3	242.122040740741	241.192381481481	235.459988888889	900	3.6	1.8	111.6
119.569	4.00399999999999	12	valuation	167	3	183.468914814815	170.620977777778	167.364133333333	100	7.5	29.5	58.5
123.573	0.794000000000011	12	rating	167	3	183.468914814815	170.620977777778	167.364133333333	100	7.5	29.5	58.5
124.367	0	12	response	167	3	183.468914814815	170.620977777778	167.364133333333	100	7.5	29.5	58.5
124.367	0.5	12	feedback	167	3	183.468914814815	170.620977777778	167.364133333333	100	7.5	29.5	58.5
130.563	4.00300000000001	13	valuation	80	3	241.8799	231.539851851852	216.649044444444	120	9.6	13.872	44.76
134.566	1.57300000000001	13	rating	80	3	241.8799	231.539851851852	216.649044444444	120	9.6	13.872	44.76
136.139	0	13	response	80	3	241.8799	231.539851851852	216.649044444444	120	9.6	13.872	44.76
136.139	0.5	13	feedback	80	3	241.8799	231.539851851852	216.649044444444	120	9.6	13.872	44.76
144.161	4.006	14	valuation	477	2	223.237314814815	225.169562962963	212.872111111111	350	2.24	0.63	6.37
148.167	1.773	14	rating	477	2	223.237314814815	225.169562962963	212.872111111111	350	2.24	0.63	6.37
149.94	0	14	response	477	2	223.237314814815	225.169562962963	212.872111111111	350	2.24	0.63	6.37
149.94	0.5	14	feedback	477	2	223.237314814815	225.169562962963	212.872111111111	350	2.24	0.63	6.37
153.127	4.00399999999999	15	valuation	391	4	208.474548148148	200.291181481481	200.220840740741	300	2.1	0.9	46.8
157.131	0.667000000000002	15	rating	391	4	208.474548148148	200.291181481481	200.220840740741	300	2.1	0.9	46.8
157.798	0	15	response	391	4	208.474548148148	200.291181481481	200.220840740741	300	2.1	0.9	46.8
157.798	0.5	15	feedback	391	4	208.474548148148	200.291181481481	200.220840740741	300	2.1	0.9	46.8
163.487	4.00400000000002	16	valuation	119	4	240.868811111111	223.05452962963	202.6496	50	3.615	13.43	17.75
167.491	0.655999999999977	16	rating	119	4	240.868811111111	223.05452962963	202.6496	50	3.615	13.43	17.75
168.147	0	16	response	119	4	240.868811111111	223.05452962963	202.6496	50	3.615	13.43	17.75
168.147	0.5	16	feedback	119	4	240.868811111111	223.05452962963	202.6496	50	3.615	13.43	17.75
172.275	4.00299999999999	17	valuation	482	3	229.967992592593	215.740125925926	197.529507407407	270	2.754	0.486	7.506
176.278	0.598000000000013	17	rating	482	3	229.967992592593	215.740125925926	197.529507407407	270	2.754	0.486	7.506
176.876	0	17	response	482	3	229.967992592593	215.740125925926	197.529507407407	270	2.754	0.486	7.506
176.876	0.5	17	feedback	482	3	229.967992592593	215.740125925926	197.529507407407	270	2.754	0.486	7.506
182.41	4.005	18	valuation	337	4	230.767918518518	215.990459259259	204.099437037037	300	32.34	9.51	9.93
186.415	0.786000000000001	18	rating	337	4	230.767918518518	215.990459259259	204.099437037037	300	32.34	9.51	9.93
187.201	0	18	response	337	4	230.767918518518	215.990459259259	204.099437037037	300	32.34	9.51	9.93
187.201	0.5	18	feedback	337	4	230.767918518518	215.990459259259	204.099437037037	300	32.34	9.51	9.93
194.069	4.00400000000002	19	valuation	166	3	172.567551851852	165.345744444444	163.705092592593	56	1.68	5.936	37.576
198.073	1.01499999999999	19	rating	166	3	172.567551851852	165.345744444444	163.705092592593	56	1.68	5.936	37.576
199.088	0	19	response	166	3	172.567551851852	165.345744444444	163.705092592593	56	1.68	5.936	37.576
199.088	0.5	19	feedback	166	3	172.567551851852	165.345744444444	163.705092592593	56	1.68	5.936	37.576
204.498	4.005	20	valuation	59	3	212.601351851852	198.902051851852	181.707014814815	1200	34.8	93.6	448.8
208.503	1.542	20	rating	59	3	212.601351851852	198.902051851852	181.707014814815	1200	34.8	93.6	448.8
210.045	0	20	response	59	3	212.601351851852	198.902051851852	181.707014814815	1200	34.8	93.6	448.8
210.045	0.5	20	feedback	59	3	212.601351851852	198.902051851852	181.707014814815	1200	34.8	93.6	448.8
217.798	4.00399999999999	21	valuation	437	1	227.362862962963	208.736588888889	193.066466666667	800	16	0.88	118.4
221.802	0.575000000000017	21	rating	437	1	227.362862962963	208.736588888889	193.066466666667	800	16	0.88	118.4
222.377	0	21	response	437	1	227.362862962963	208.736588888889	193.066466666667	800	16	0.88	118.4
222.377	0.5	21	feedback	437	1	227.362862962963	208.736588888889	193.066466666667	800	16	0.88	118.4
228.311	4.006	22	valuation	187	2	243.599374074074	219.512066666667	207.100203703704	70	3.64	13.16	25.13
232.317	1.39499999999998	22	rating	187	2	243.599374074074	219.512066666667	207.100203703704	70	3.64	13.16	25.13
233.712	0	22	response	187	2	243.599374074074	219.512066666667	207.100203703704	70	3.64	13.16	25.13
233.712	0.5	22	feedback	187	2	243.599374074074	219.512066666667	207.100203703704	70	3.64	13.16	25.13
236.775	6.505	23	miss	307	0	243.524525925926	231.736444444444	217.999248148148	125	25	11.9625	1.625
246.089	4.00399999999999	24	valuation	150	3	227.759177777778	224.102914814815	218.988918518519	60	4.62	9.12	31.98
250.093	0.501000000000005	24	rating	150	3	227.759177777778	224.102914814815	218.988918518519	60	4.62	9.12	31.98
250.594	0	24	response	150	3	227.759177777778	224.102914814815	218.988918518519	60	4.62	9.12	31.98
250.594	0.5	24	feedback	150	3	227.759177777778	224.102914814815	218.988918518519	60	4.62	9.12	31.98
257.31	4.00299999999999	25	valuation	88	4	222.0952	211.404422222222	204.146240740741	90	2.79	19.08	25.92
261.313	1.428	25	rating	88	4	222.0952	211.404422222222	204.146240740741	90	2.79	19.08	25.92
262.741	0	25	response	88	4	222.0952	211.404422222222	204.146240740741	90	2.79	19.08	25.92
262.741	0.5	25	feedback	88	4	222.0952	211.404422222222	204.146240740741	90	2.79	19.08	25.92
269.852	6.50600000000003	26	miss	293	0	237.566888888889	228.382418518518	222.876903703704	15	1.0455	3.837	9.7665
282.298	4.00400000000002	27	valuation	203	2	224.25597037037	210.968914814815	202.841022222222	100	1	0.5	6
286.302	0.98599999999999	27	rating	203	2	224.25597037037	210.968914814815	202.841022222222	100	1	0.5	6
287.288	0	27	response	203	2	224.25597037037	210.968914814815	202.841022222222	100	1	0.5	6
287.288	0.5	27	feedback	203	2	224.25597037037	210.968914814815	202.841022222222	100	1	0.5	6
292.591	4.00400000000002	28	valuation	508	2	183.246151851852	204.759714814815	177.769085185185	500	6.25	1.1	5.3
296.595	1.36199999999997	28	rating	508	2	183.246151851852	204.759714814815	177.769085185185	500	6.25	1.1	5.3
297.957	0	28	response	508	2	183.246151851852	204.759714814815	177.769085185185	500	6.25	1.1	5.3
297.957	0.5	28	feedback	508	2	183.246151851852	204.759714814815	177.769085185185	500	6.25	1.1	5.3
300.91	4.005	29	valuation	223	2	226.3765	207.740251851852	201.075733333333	125	1.25	0.625	7.5
304.915	0.646999999999991	29	rating	223	2	226.3765	207.740251851852	201.075733333333	125	1.25	0.625	7.5
305.562	0	29	response	223	2	226.3765	207.740251851852	201.075733333333	125	1.25	0.625	7.5
305.562	0.5	29	feedback	223	2	226.3765	207.740251851852	201.075733333333	125	1.25	0.625	7.5
310.06	4.00400000000002	30	valuation	346	2	228.343103703704	197.327307407407	175.748781481482	600	12	0.66	88.8
314.064	1.01599999999996	30	rating	346	2	228.343103703704	197.327307407407	175.748781481482	600	12	0.66	88.8
315.08	0	30	response	346	2	228.343103703704	197.327307407407	175.748781481482	600	12	0.66	88.8
315.08	0.5	30	feedback	346	2	228.343103703704	197.327307407407	175.748781481482	600	12	0.66	88.8
318.94	4.00400000000002	31	valuation	224	1	204.284585185185	186.762425925926	184.890859259259	100	1	0.5	6
322.944	0.669999999999959	31	rating	224	1	204.284585185185	186.762425925926	184.890859259259	100	1	0.5	6
323.614	0	31	response	224	1	204.284585185185	186.762425925926	184.890859259259	100	1	0.5	6
323.614	0.5	31	feedback	224	1	204.284585185185	186.762425925926	184.890859259259	100	1	0.5	6
327.583	4.00399999999996	32	valuation	62	3	231.827648148148	219.497414814815	207.432437037037	70	6.195	2.1	36.33
331.587	1.76499999999999	32	rating	62	3	231.827648148148	219.497414814815	207.432437037037	70	6.195	2.1	36.33
333.352	0	32	response	62	3	231.827648148148	219.497414814815	207.432437037037	70	6.195	2.1	36.33
333.352	0.5	32	feedback	62	3	231.827648148148	219.497414814815	207.432437037037	70	6.195	2.1	36.33
338.233	4.00400000000002	33	valuation	269	1	231.128981481482	233.808259259259	209.526407407407	249	0.9711	4.6065	3.6354
342.237	1.411	33	rating	269	1	231.128981481482	233.808259259259	209.526407407407	249	0.9711	4.6065	3.6354
343.648	0	33	response	269	1	231.128981481482	233.808259259259	209.526407407407	249	0.9711	4.6065	3.6354
343.648	0.5	33	feedback	269	1	231.128981481482	233.808259259259	209.526407407407	249	0.9711	4.6065	3.6354
350.627	4.00700000000001	34	valuation	388	4	251.513644444444	251.240011111111	248.662714814815	150	0.15	0	3.9
354.634	1.12599999999998	34	rating	388	4	251.513644444444	251.240011111111	248.662714814815	150	0.15	0	3.9
355.76	0	34	response	388	4	251.513644444444	251.240011111111	248.662714814815	150	0.15	0	3.9
355.76	0.5	34	feedback	388	4	251.513644444444	251.240011111111	248.662714814815	150	0.15	0	3.9
362.112	4.00399999999996	35	valuation	324	3	210.538122222222	181.569266666667	166.688944444445	150	32.55	24.15	6.75
366.116	0.925000000000011	35	rating	324	3	210.538122222222	181.569266666667	166.688944444445	150	32.55	24.15	6.75
367.041	0	35	response	324	3	210.538122222222	181.569266666667	166.688944444445	150	32.55	24.15	6.75
367.041	0.5	35	feedback	324	3	210.538122222222	181.569266666667	166.688944444445	150	32.55	24.15	6.75
375.19	6.50600000000003	36	miss	98	0	229.244140740741	216.796988888889	195.348944444444	1600	384	464	0.8
387.236	4.00400000000002	37	valuation	303	1	228.245851851852	221.621888888889	196.561248148148	50	1.23	0.14	1.17
391.24	0.743999999999971	37	rating	303	1	228.245851851852	221.621888888889	196.561248148148	50	1.23	0.14	1.17
391.984	0	37	response	303	1	228.245851851852	221.621888888889	196.561248148148	50	1.23	0.14	1.17
391.984	0.5	37	feedback	303	1	228.245851851852	221.621888888889	196.561248148148	50	1.23	0.14	1.17
396.234	4.00300000000004	38	valuation	207	1	236.945751851852	222.32802962963	217.782514814815	50	0.55	0.1	3.6
400.237	0.755999999999972	38	rating	207	1	236.945751851852	222.32802962963	217.782514814815	50	0.55	0.1	3.6
400.993	0	38	response	207	1	236.945751851852	222.32802962963	217.782514814815	50	0.55	0.1	3.6
400.993	0.5	38	feedback	207	1	236.945751851852	222.32802962963	217.782514814815	50	0.55	0.1	3.6
407.59	4.00500000000005	39	valuation	137	2	235.596192592593	223.724274074074	213.428074074074	75	4.65	15.525	36.75
411.595	0.715999999999951	39	rating	137	2	235.596192592593	223.724274074074	213.428074074074	75	4.65	15.525	36.75
412.311	0	39	response	137	2	235.596192592593	223.724274074074	213.428074074074	75	4.65	15.525	36.75
412.311	0.5	39	feedback	137	2	235.596192592593	223.724274074074	213.428074074074	75	4.65	15.525	36.75
419.822	4.00400000000002	40	valuation	334	4	233.865959259259	228.59447037037	210.783918518519	400	5.2	0.8	20.8
423.826	0.141999999999996	40	rating	334	4	233.865959259259	228.59447037037	210.783918518519	400	5.2	0.8	20.8
423.968	0	40	response	334	4	233.865959259259	228.59447037037	210.783918518519	400	5.2	0.8	20.8
423.968	0.5	40	feedback	334	4	233.865959259259	228.59447037037	210.783918518519	400	5.2	0.8	20.8
428.615	4.00400000000002	41	valuation	140	4	225.786892592593	215.802959259259	208.415466666667	65	2.47	10.985	15.99
432.619	0.836999999999989	41	rating	140	4	225.786892592593	215.802959259259	208.415466666667	65	2.47	10.985	15.99
433.456	0	41	response	140	4	225.786892592593	215.802959259259	208.415466666667	65	2.47	10.985	15.99
433.456	0.5	41	feedback	140	4	225.786892592593	215.802959259259	208.415466666667	65	2.47	10.985	15.99
437.041	4.005	42	valuation	181	3	229.859518518518	218.530111111111	203.711755555556	250	22.5	15.1	149
441.046	2.04000000000002	42	rating	181	3	229.859518518518	218.530111111111	203.711755555556	250	22.5	15.1	149
443.086	0	42	response	181	3	229.859518518518	218.530111111111	203.711755555556	250	22.5	15.1	149
443.086	0.5	42	feedback	181	3	229.859518518518	218.530111111111	203.711755555556	250	22.5	15.1	149
450.713	4.00399999999996	43	valuation	379	2	245.378422222222	237.3909	194.78592962963	594	6.831	1.0692	127.0566
454.717	0.77800000000002	43	rating	379	2	245.378422222222	237.3909	194.78592962963	594	6.831	1.0692	127.0566
455.495	0	43	response	379	2	245.378422222222	237.3909	194.78592962963	594	6.831	1.0692	127.0566
455.495	0.5	43	feedback	379	2	245.378422222222	237.3909	194.78592962963	594	6.831	1.0692	127.0566
464.029	4.00400000000002	44	valuation	329	2	251.147081481481	209.536566666667	191.461725925926	50	9.5	6.5	0
468.033	1.50599999999997	44	rating	329	2	251.147081481481	209.536566666667	191.461725925926	50	9.5	6.5	0
469.539	0	44	response	329	2	251.147081481481	209.536566666667	191.461725925926	50	9.5	6.5	0
469.539	0.5	44	feedback	329	2	251.147081481481	209.536566666667	191.461725925926	50	9.5	6.5	0
477.952	6.50900000000001	45	miss	568	0	229.324311111111	198.779666666667	188.4166	380	92.416	96.9	6.46
487.412	4.00400000000002	46	valuation	132	4	233.748444444444	222.715862962963	197.658111111111	350	101.5	105	0
491.416	0.629999999999995	46	rating	132	4	233.748444444444	222.715862962963	197.658111111111	350	101.5	105	0
492.046	0	46	response	132	4	233.748444444444	222.715862962963	197.658111111111	350	101.5	105	0
492.046	0.5	46	feedback	132	4	233.748444444444	222.715862962963	197.658111111111	350	101.5	105	0
499.956	6.512	47	miss	128	0	235.053166666667	226.200637037037	221.721766666667	2000	20	6	1900
