onset	duration	trial_id	trial_type	image_id	rating_value	red	green	blue	gram	protein	fat	carb
10.041	4.005	1	valuation	418	1	243.272259259259	237.956851851852	227.336403703704	1000	24.6	2.8	23.4
14.046	0.627000000000001	1	rating	418	1	243.272259259259	237.956851851852	227.336403703704	1000	24.6	2.8	23.4
14.673	0	1	response	418	1	243.272259259259	237.956851851852	227.336403703704	1000	24.6	2.8	23.4
14.673	0.5	1	feedback	418	1	243.272259259259	237.956851851852	227.336403703704	1000	24.6	2.8	23.4
21.435	4.004	2	valuation	525	2	230.031614814815	199.476592592593	164.767181481481	7.5	1.08	4.6875	0.795
25.439	1.294	2	rating	525	2	230.031614814815	199.476592592593	164.767181481481	7.5	1.08	4.6875	0.795
26.733	0	2	response	525	2	230.031614814815	199.476592592593	164.767181481481	7.5	1.08	4.6875	0.795
26.733	0.5	2	feedback	525	2	230.031614814815	199.476592592593	164.767181481481	7.5	1.08	4.6875	0.795
32.463	4.005	3	valuation	223	3	226.3765	207.740251851852	201.075733333333	125	1.25	0.625	7.5
36.468	0.582999999999998	3	rating	223	3	226.3765	207.740251851852	201.075733333333	125	1.25	0.625	7.5
37.051	0	3	response	223	3	226.3765	207.740251851852	201.075733333333	125	1.25	0.625	7.5
37.051	0.5	3	feedback	223	3	226.3765	207.740251851852	201.075733333333	125	1.25	0.625	7.5
41.304	4.004	4	valuation	74	4	205.973988888889	197.97622962963	195.076896296296	1300	50.7	157.3	419.9
45.308	1.04	4	rating	74	4	205.973988888889	197.97622962963	195.076896296296	1300	50.7	157.3	419.9
46.348	0	4	response	74	4	205.973988888889	197.97622962963	195.076896296296	1300	50.7	157.3	419.9
46.348	0.5	4	feedback	74	4	205.973988888889	197.97622962963	195.076896296296	1300	50.7	157.3	419.9
52.975	4.005	5	valuation	481	1	228.953885185185	223.616744444445	209.732762962963	70	4.13	5.159	20.727
56.98	0.535000000000004	5	rating	481	1	228.953885185185	223.616744444445	209.732762962963	70	4.13	5.159	20.727
57.515	0	5	response	481	1	228.953885185185	223.616744444445	209.732762962963	70	4.13	5.159	20.727
57.515	0.5	5	feedback	481	1	228.953885185185	223.616744444445	209.732762962963	70	4.13	5.159	20.727
62.48	4.004	6	valuation	72	3	225.051766666667	210.952637037037	195.053596296296	243	23.0121	17.01	43.011
66.484	1.337	6	rating	72	3	225.051766666667	210.952637037037	195.053596296296	243	23.0121	17.01	43.011
67.821	0	6	response	72	3	225.051766666667	210.952637037037	195.053596296296	243	23.0121	17.01	43.011
67.821	0.5	6	feedback	72	3	225.051766666667	210.952637037037	195.053596296296	243	23.0121	17.01	43.011
73.811	4.005	7	valuation	252	1	234.366414814815	236.86237037037	220.153803703704	300	2.4	0.48	3.78
77.816	1.09699999999999	7	rating	252	1	234.366414814815	236.86237037037	220.153803703704	300	2.4	0.48	3.78
78.913	0	7	response	252	1	234.366414814815	236.86237037037	220.153803703704	300	2.4	0.48	3.78
78.913	0.5	7	feedback	252	1	234.366414814815	236.86237037037	220.153803703704	300	2.4	0.48	3.78
83.774	4.004	8	valuation	8	3	230.364255555556	218.267518518519	205.17507037037	20	1.8	0.1	15.06
87.778	0.518999999999991	8	rating	8	3	230.364255555556	218.267518518519	205.17507037037	20	1.8	0.1	15.06
88.297	0	8	response	8	3	230.364255555556	218.267518518519	205.17507037037	20	1.8	0.1	15.06
88.297	0.5	8	feedback	8	3	230.364255555556	218.267518518519	205.17507037037	20	1.8	0.1	15.06
95.433	4.00399999999999	9	valuation	284	3	216.230988888889	202.983677777778	199.322748148148	30	0.3	0.09	4.68
99.437	1.408	9	rating	284	3	216.230988888889	202.983677777778	199.322748148148	30	0.3	0.09	4.68
100.845	0	9	response	284	3	216.230988888889	202.983677777778	199.322748148148	30	0.3	0.09	4.68
100.845	0.5	9	feedback	284	3	216.230988888889	202.983677777778	199.322748148148	30	0.3	0.09	4.68
104.025	4.00699999999999	10	valuation	169	3	192.852992592593	177.805596296296	172.424551851852	55	3.795	14.85	20.02
108.032	0.385000000000005	10	rating	169	3	192.852992592593	177.805596296296	172.424551851852	55	3.795	14.85	20.02
108.417	0	10	response	169	3	192.852992592593	177.805596296296	172.424551851852	55	3.795	14.85	20.02
108.417	0.5	10	feedback	169	3	192.852992592593	177.805596296296	172.424551851852	55	3.795	14.85	20.02
116.828	4.00699999999999	11	valuation	154	1	230.843148148148	215.923281481481	204.736803703704	20	0.68	0.4	15.96
120.835	1.08000000000001	11	rating	154	1	230.843148148148	215.923281481481	204.736803703704	20	0.68	0.4	15.96
121.915	0	11	response	154	1	230.843148148148	215.923281481481	204.736803703704	20	0.68	0.4	15.96
121.915	0.5	11	feedback	154	1	230.843148148148	215.923281481481	204.736803703704	20	0.68	0.4	15.96
124.98	4.00500000000001	12	valuation	225	1	227.461903703704	225.681551851852	215.026066666667	28	3.45996	0.2184	6.692
128.985	0.672999999999973	12	rating	225	1	227.461903703704	225.681551851852	215.026066666667	28	3.45996	0.2184	6.692
129.658	0	12	response	225	1	227.461903703704	225.681551851852	215.026066666667	28	3.45996	0.2184	6.692
129.658	0.5	12	feedback	225	1	227.461903703704	225.681551851852	215.026066666667	28	3.45996	0.2184	6.692
134.884	4.00400000000002	13	valuation	455	1	197.87807037037	210.763881481481	180.331414814815	80	2.016	0.24	0.44
138.888	0.772999999999996	13	rating	455	1	197.87807037037	210.763881481481	180.331414814815	80	2.016	0.24	0.44
139.661	0	13	response	455	1	197.87807037037	210.763881481481	180.331414814815	80	2.016	0.24	0.44
139.661	0.5	13	feedback	455	1	197.87807037037	210.763881481481	180.331414814815	80	2.016	0.24	0.44
146.672	4.005	14	valuation	151	3	241.193903703704	224.897437037037	187.470951851852	150	7.95	34.5	78
150.677	1.935	14	rating	151	3	241.193903703704	224.897437037037	187.470951851852	150	7.95	34.5	78
152.612	0	14	response	151	3	241.193903703704	224.897437037037	187.470951851852	150	7.95	34.5	78
152.612	0.5	14	feedback	151	3	241.193903703704	224.897437037037	187.470951851852	150	7.95	34.5	78
158.215	4.00399999999999	15	valuation	550	1	196.804374074074	204.14227037037	170.654014814815	500	22.25	1.7	16.45
162.219	0.77600000000001	15	rating	550	1	196.804374074074	204.14227037037	170.654014814815	500	22.25	1.7	16.45
162.995	0	15	response	550	1	196.804374074074	204.14227037037	170.654014814815	500	22.25	1.7	16.45
162.995	0.5	15	feedback	550	1	196.804374074074	204.14227037037	170.654014814815	500	22.25	1.7	16.45
171.302	4.00400000000002	16	valuation	359	1	235.124337037037	234.318940740741	220.059733333333	1000	13.3	1	14.3
175.306	0.537999999999982	16	rating	359	1	235.124337037037	234.318940740741	220.059733333333	1000	13.3	1	14.3
175.844	0	16	response	359	1	235.124337037037	234.318940740741	220.059733333333	1000	13.3	1	14.3
175.844	0.5	16	feedback	359	1	235.124337037037	234.318940740741	220.059733333333	1000	13.3	1	14.3
179.789	4.00400000000002	17	valuation	189	2	211.252040740741	198.967348148148	187.437492592593	90	7.353	13.05	48.447
183.793	0.882000000000005	17	rating	189	2	211.252040740741	198.967348148148	187.437492592593	90	7.353	13.05	48.447
184.675	0	17	response	189	2	211.252040740741	198.967348148148	187.437492592593	90	7.353	13.05	48.447
184.675	0.5	17	feedback	189	2	211.252040740741	198.967348148148	187.437492592593	90	7.353	13.05	48.447
192.32	4.00900000000001	18	valuation	42	3	233.080374074074	221.833485185185	221.096044444444	800	55.04	146.48	327.68
196.329	0.875	18	rating	42	3	233.080374074074	221.833485185185	221.096044444444	800	55.04	146.48	327.68
197.204	0	18	response	42	3	233.080374074074	221.833485185185	221.096044444444	800	55.04	146.48	327.68
197.204	0.5	18	feedback	42	3	233.080374074074	221.833485185185	221.096044444444	800	55.04	146.48	327.68
200.514	4.00199999999998	19	valuation	351	3	231.964922222222	205.086592592593	182.388911111111	65	4.602	21.8205	29.159
204.516	0.613	19	rating	351	3	231.964922222222	205.086592592593	182.388911111111	65	4.602	21.8205	29.159
205.129	0	19	response	351	3	231.964922222222	205.086592592593	182.388911111111	65	4.602	21.8205	29.159
205.129	0.5	19	feedback	351	3	231.964922222222	205.086592592593	182.388911111111	65	4.602	21.8205	29.159
209.47	4.00399999999999	20	valuation	117	3	242.720503703704	225.239085185185	196.600944444444	34	2.006	11.9	16.32
213.474	1.43000000000001	20	rating	117	3	242.720503703704	225.239085185185	196.600944444444	34	2.006	11.9	16.32
214.904	0	20	response	117	3	242.720503703704	225.239085185185	196.600944444444	34	2.006	11.9	16.32
214.904	0.5	20	feedback	117	3	242.720503703704	225.239085185185	196.600944444444	34	2.006	11.9	16.32
219.63	4.00399999999999	21	valuation	457	2	235.866196296296	213.29577037037	187.122566666667	60	10.62	30.24	6.12
223.634	0.707000000000022	21	rating	457	2	235.866196296296	213.29577037037	187.122566666667	60	10.62	30.24	6.12
224.341	0	21	response	457	2	235.866196296296	213.29577037037	187.122566666667	60	10.62	30.24	6.12
224.341	0.5	21	feedback	457	2	235.866196296296	213.29577037037	187.122566666667	60	10.62	30.24	6.12
227.903	4.005	22	valuation	71	1	239.094714814815	231.21037037037	209.720744444444	600	156	175.2	0
231.908	0.687000000000012	22	rating	71	1	239.094714814815	231.21037037037	209.720744444444	600	156	175.2	0
232.595	0	22	response	71	1	239.094714814815	231.21037037037	209.720744444444	600	156	175.2	0
232.595	0.5	22	feedback	71	1	239.094714814815	231.21037037037	209.720744444444	600	156	175.2	0
239.987	4.005	23	valuation	423	2	231.982088888889	212.613714814815	188.355359259259	95	7.03	1.33	48.07
243.992	1.46200000000002	23	rating	423	2	231.982088888889	212.613714814815	188.355359259259	95	7.03	1.33	48.07
245.454	0	23	response	423	2	231.982088888889	212.613714814815	188.355359259259	95	7.03	1.33	48.07
245.454	0.5	23	feedback	423	2	231.982088888889	212.613714814815	188.355359259259	95	7.03	1.33	48.07
248.89	4.00400000000002	24	valuation	88	3	222.0952	211.404422222222	204.146240740741	90	2.79	19.08	25.92
252.894	1.221	24	rating	88	3	222.0952	211.404422222222	204.146240740741	90	2.79	19.08	25.92
254.115	0	24	response	88	3	222.0952	211.404422222222	204.146240740741	90	2.79	19.08	25.92
254.115	0.5	24	feedback	88	3	222.0952	211.404422222222	204.146240740741	90	2.79	19.08	25.92
259.22	4.005	25	valuation	205	2	234.69972962963	229.598588888889	221.566211111111	28	3.4608	0.2184	6.692
263.225	1.61399999999998	25	rating	205	2	234.69972962963	229.598588888889	221.566211111111	28	3.4608	0.2184	6.692
264.839	0	25	response	205	2	234.69972962963	229.598588888889	221.566211111111	28	3.4608	0.2184	6.692
264.839	0.5	25	feedback	205	2	234.69972962963	229.598588888889	221.566211111111	28	3.4608	0.2184	6.692
272.362	4.00399999999996	26	valuation	2	3	224.223055555555	209.635125925926	185.501751851852	360	54	54	50.4
276.366	0.626000000000033	26	rating	2	3	224.223055555555	209.635125925926	185.501751851852	360	54	54	50.4
276.992	0	26	response	2	3	224.223055555555	209.635125925926	185.501751851852	360	54	54	50.4
276.992	0.5	26	feedback	2	3	224.223055555555	209.635125925926	185.501751851852	360	54	54	50.4
284.913	4.00799999999998	27	valuation	522	1	211.285055555556	209.573311111111	184.721655555556	320	4.48	0.48	7.2
288.921	0.632000000000005	27	rating	522	1	211.285055555556	209.573311111111	184.721655555556	320	4.48	0.48	7.2
289.553	0	27	response	522	1	211.285055555556	209.573311111111	184.721655555556	320	4.48	0.48	7.2
289.553	0.5	27	feedback	522	1	211.285055555556	209.573311111111	184.721655555556	320	4.48	0.48	7.2
292.487	4.00399999999996	28	valuation	41	3	206.442281481481	198.14667037037	185.634414814815	50	3.91	11.5	21
296.491	0.576999999999998	28	rating	41	3	206.442281481481	198.14667037037	185.634414814815	50	3.91	11.5	21
297.068	0	28	response	41	3	206.442281481481	198.14667037037	185.634414814815	50	3.91	11.5	21
297.068	0.5	28	feedback	41	3	206.442281481481	198.14667037037	185.634414814815	50	3.91	11.5	21
301.142	4.00400000000002	29	valuation	316	2	229.776314814815	226.610340740741	214.930022222222	400	15.6	16.4	44
305.146	0.706999999999994	29	rating	316	2	229.776314814815	226.610340740741	214.930022222222	400	15.6	16.4	44
305.853	0	29	response	316	2	229.776314814815	226.610340740741	214.930022222222	400	15.6	16.4	44
305.853	0.5	29	feedback	316	2	229.776314814815	226.610340740741	214.930022222222	400	15.6	16.4	44
313.118	4.005	30	valuation	387	3	227.632918518519	210.873792592593	202.3937	3500	549.5	1085	0
317.123	0.668000000000006	30	rating	387	3	227.632918518519	210.873792592593	202.3937	3500	549.5	1085	0
317.791	0	30	response	387	3	227.632918518519	210.873792592593	202.3937	3500	549.5	1085	0
317.791	0.5	30	feedback	387	3	227.632918518519	210.873792592593	202.3937	3500	549.5	1085	0
325.587	4.00900000000001	31	valuation	249	1	227.740374074074	228.878825925926	212.286907407407	1900	28.88	3.23	27.55
329.596	0.963000000000022	31	rating	249	1	227.740374074074	228.878825925926	212.286907407407	1900	28.88	3.23	27.55
330.559	0	31	response	249	1	227.740374074074	228.878825925926	212.286907407407	1900	28.88	3.23	27.55
330.559	0.5	31	feedback	249	1	227.740374074074	228.878825925926	212.286907407407	1900	28.88	3.23	27.55
336.677	4.00399999999996	32	valuation	319	3	233.153577777778	211.589825925926	200.948622222222	2000	364	344	0
340.681	0.75	32	rating	319	3	233.153577777778	211.589825925926	200.948622222222	2000	364	344	0
341.431	0	32	response	319	3	233.153577777778	211.589825925926	200.948622222222	2000	364	344	0
341.431	0.5	32	feedback	319	3	233.153577777778	211.589825925926	200.948622222222	2000	364	344	0
346.781	4.00299999999999	33	valuation	19	3	236.933103703704	226.098122222222	213.87197037037	300	20.01	39.99	125.01
350.784	0.552999999999997	33	rating	19	3	236.933103703704	226.098122222222	213.87197037037	300	20.01	39.99	125.01
351.337	0	33	response	19	3	236.933103703704	226.098122222222	213.87197037037	300	20.01	39.99	125.01
351.337	0.5	33	feedback	19	3	236.933103703704	226.098122222222	213.87197037037	300	20.01	39.99	125.01
355.155	4.00400000000002	34	valuation	427	1	245.42262962963	227.004585185185	206.62447037037	15	2.16	9.375	1.59
359.159	0.562999999999988	34	rating	427	1	245.42262962963	227.004585185185	206.62447037037	15	2.16	9.375	1.59
359.722	0	34	response	427	1	245.42262962963	227.004585185185	206.62447037037	15	2.16	9.375	1.59
359.722	0.5	34	feedback	427	1	245.42262962963	227.004585185185	206.62447037037	15	2.16	9.375	1.59
366.603	4.00799999999998	35	valuation	185	3	238.066225925926	220.562592592593	202.88197037037	300	45.57	79.11	0.84
370.611	0.876000000000033	35	rating	185	3	238.066225925926	220.562592592593	202.88197037037	300	45.57	79.11	0.84
371.487	0	35	response	185	3	238.066225925926	220.562592592593	202.88197037037	300	45.57	79.11	0.84
371.487	0.5	35	feedback	185	3	238.066225925926	220.562592592593	202.88197037037	300	45.57	79.11	0.84
375.943	4.00400000000002	36	valuation	378	2	245.6192	237.550818518518	222.0697	500	55.5	40	102
379.947	0.788000000000011	36	rating	378	2	245.6192	237.550818518518	222.0697	500	55.5	40	102
380.735	0	36	response	378	2	245.6192	237.550818518518	222.0697	500	55.5	40	102
380.735	0.5	36	feedback	378	2	245.6192	237.550818518518	222.0697	500	55.5	40	102
389.276	4.00799999999998	37	valuation	328	4	219.765292592593	196.512414814815	184.031585185185	315	59.6925	18.018	4.473
393.284	0.749000000000024	37	rating	328	4	219.765292592593	196.512414814815	184.031585185185	315	59.6925	18.018	4.473
394.033	0	37	response	328	4	219.765292592593	196.512414814815	184.031585185185	315	59.6925	18.018	4.473
394.033	0.5	37	feedback	328	4	219.765292592593	196.512414814815	184.031585185185	315	59.6925	18.018	4.473
400.407	4.005	38	valuation	360	1	203.668714814815	205.322677777778	167.156540740741	250	5	0.3	6.5
404.412	0.763000000000034	38	rating	360	1	203.668714814815	205.322677777778	167.156540740741	250	5	0.3	6.5
405.175	0	38	response	360	1	203.668714814815	205.322677777778	167.156540740741	250	5	0.3	6.5
405.175	0.5	38	feedback	360	1	203.668714814815	205.322677777778	167.156540740741	250	5	0.3	6.5
413.227	4.00400000000002	39	valuation	156	3	241.581185185185	221.234507407407	201.485144444444	50	3.75	3.5	26
417.231	0.591000000000008	39	rating	156	3	241.581185185185	221.234507407407	201.485144444444	50	3.75	3.5	26
417.822	0	39	response	156	3	241.581185185185	221.234507407407	201.485144444444	50	3.75	3.5	26
417.822	0.5	39	feedback	156	3	241.581185185185	221.234507407407	201.485144444444	50	3.75	3.5	26
422.425	4.00399999999996	40	valuation	283	2	223.747351851852	218.659118518519	190.168366666667	250	5	58.75	1
426.429	1.108	40	rating	283	2	223.747351851852	218.659118518519	190.168366666667	250	5	58.75	1
427.537	0	40	response	283	2	223.747351851852	218.659118518519	190.168366666667	250	5	58.75	1
427.537	0.5	40	feedback	283	2	223.747351851852	218.659118518519	190.168366666667	250	5	58.75	1
433.398	4.00399999999996	41	valuation	447	1	212.686603703704	211.018374074074	167.308322222222	130	4.29	0.546	12.064
437.402	1.012	41	rating	447	1	212.686603703704	211.018374074074	167.308322222222	130	4.29	0.546	12.064
438.414	0	41	response	447	1	212.686603703704	211.018374074074	167.308322222222	130	4.29	0.546	12.064
438.414	0.5	41	feedback	447	1	212.686603703704	211.018374074074	167.308322222222	130	4.29	0.546	12.064
442.115	4.005	42	valuation	86	3	236.011966666667	220.893862962963	200.992777777778	286	30.316	35.8072	50.9938
446.12	0.749000000000024	42	rating	86	3	236.011966666667	220.893862962963	200.992777777778	286	30.316	35.8072	50.9938
446.869	0	42	response	86	3	236.011966666667	220.893862962963	200.992777777778	286	30.316	35.8072	50.9938
446.869	0.5	42	feedback	86	3	236.011966666667	220.893862962963	200.992777777778	286	30.316	35.8072	50.9938
455.028	4.00999999999999	43	valuation	372	1	243.878866666667	227.843533333333	196.686544444444	40	3.6	1.4	29.6
459.038	1.51799999999997	43	rating	372	1	243.878866666667	227.843533333333	196.686544444444	40	3.6	1.4	29.6
460.556	0	43	response	372	1	243.878866666667	227.843533333333	196.686544444444	40	3.6	1.4	29.6
460.556	0.5	43	feedback	372	1	243.878866666667	227.843533333333	196.686544444444	40	3.6	1.4	29.6
463.247	4.00299999999999	44	valuation	560	4	247.228659259259	233.032048148148	209.309892592593	60	7.74	9.48	0.42
467.25	0.685000000000002	44	rating	560	4	247.228659259259	233.032048148148	209.309892592593	60	7.74	9.48	0.42
467.935	0	44	response	560	4	247.228659259259	233.032048148148	209.309892592593	60	7.74	9.48	0.42
467.935	0.5	44	feedback	560	4	247.228659259259	233.032048148148	209.309892592593	60	7.74	9.48	0.42
470.48	4.00399999999996	45	valuation	114	3	240.337251851852	222.546277777778	206.624785185185	150	7.8	28.2	53.85
474.484	1.25300000000004	45	rating	114	3	240.337251851852	222.546277777778	206.624785185185	150	7.8	28.2	53.85
475.737	0	45	response	114	3	240.337251851852	222.546277777778	206.624785185185	150	7.8	28.2	53.85
475.737	0.5	45	feedback	114	3	240.337251851852	222.546277777778	206.624785185185	150	7.8	28.2	53.85
478.535	4.00399999999996	46	valuation	55	3	210.184577777778	175.108888888889	166.413762962963	1100	34.1	116.6	310.2
482.539	0.814000000000021	46	rating	55	3	210.184577777778	175.108888888889	166.413762962963	1100	34.1	116.6	310.2
483.353	0	46	response	55	3	210.184577777778	175.108888888889	166.413762962963	1100	34.1	116.6	310.2
483.353	0.5	46	feedback	55	3	210.184577777778	175.108888888889	166.413762962963	1100	34.1	116.6	310.2
489.596	4.005	47	valuation	1	3	220.202096296296	209.477455555556	205.770662962963	150	9	25.71	49.335
493.601	0.728999999999985	47	rating	1	3	220.202096296296	209.477455555556	205.770662962963	150	9	25.71	49.335
494.33	0	47	response	1	3	220.202096296296	209.477455555556	205.770662962963	150	9	25.71	49.335
494.33	0.5	47	feedback	1	3	220.202096296296	209.477455555556	205.770662962963	150	9	25.71	49.335
499.82	4.00400000000002	48	valuation	366	3	229.108548148148	207.484762962963	186.527814814815	180	20.484	7.056	90.72
503.824	0.658999999999992	48	rating	366	3	229.108548148148	207.484762962963	186.527814814815	180	20.484	7.056	90.72
504.483	0	48	response	366	3	229.108548148148	207.484762962963	186.527814814815	180	20.484	7.056	90.72
504.483	0.5	48	feedback	366	3	229.108548148148	207.484762962963	186.527814814815	180	20.484	7.056	90.72
