onset	duration	trial_id	trial_type	image_id	rating_value	red	green	blue	gram	protein	fat	carb
10.04	4.003	1	valuation	383	1	228.460337037037	202.349562962963	171.075537037037	45	4.995	3.6	9.18
14.043	0.579000000000001	1	rating	383	1	228.460337037037	202.349562962963	171.075537037037	45	4.995	3.6	9.18
14.622	0	1	response	383	1	228.460337037037	202.349562962963	171.075537037037	45	4.995	3.6	9.18
14.622	0.5	1	feedback	383	1	228.460337037037	202.349562962963	171.075537037037	45	4.995	3.6	9.18
18.213	4.004	2	valuation	178	3	239.681185185185	231.455796296296	222.511874074074	126	8.064	17.514	52.29
22.217	0.583000000000002	2	rating	178	3	239.681185185185	231.455796296296	222.511874074074	126	8.064	17.514	52.29
22.8	0	2	response	178	3	239.681185185185	231.455796296296	222.511874074074	126	8.064	17.514	52.29
22.8	0.5	2	feedback	178	3	239.681185185185	231.455796296296	222.511874074074	126	8.064	17.514	52.29
27.656	4.006	3	valuation	554	2	218.795292592593	200.597207407407	189.157607407407	300	60	24	3
31.662	0.597000000000001	3	rating	554	2	218.795292592593	200.597207407407	189.157607407407	300	60	24	3
32.259	0	3	response	554	2	218.795292592593	200.597207407407	189.157607407407	300	60	24	3
32.259	0.5	3	feedback	554	2	218.795292592593	200.597207407407	189.157607407407	300	60	24	3
38.569	4.004	4	valuation	30	2	231.086585185185	212.687988888889	188.667337037037	900	155.61	73.26	33.3
42.573	0.833999999999996	4	rating	30	2	231.086585185185	212.687988888889	188.667337037037	900	155.61	73.26	33.3
43.407	0	4	response	30	2	231.086585185185	212.687988888889	188.667337037037	900	155.61	73.26	33.3
43.407	0.5	4	feedback	30	2	231.086585185185	212.687988888889	188.667337037037	900	155.61	73.26	33.3
47.375	4.006	5	valuation	115	1	243.710359259259	235.225455555556	230.358507407407	300	5.7	37.11	47.7
51.381	0.613	5	rating	115	1	243.710359259259	235.225455555556	230.358507407407	300	5.7	37.11	47.7
51.994	0	5	response	115	1	243.710359259259	235.225455555556	230.358507407407	300	5.7	37.11	47.7
51.994	0.5	5	feedback	115	1	243.710359259259	235.225455555556	230.358507407407	300	5.7	37.11	47.7
57.62	4.005	6	valuation	321	2	244.035311111111	236.397792592593	226.841944444444	50	6.5	5.55	0.35
61.625	0.802	6	rating	321	2	244.035311111111	236.397792592593	226.841944444444	50	6.5	5.55	0.35
62.427	0	6	response	321	2	244.035311111111	236.397792592593	226.841944444444	50	6.5	5.55	0.35
62.427	0.5	6	feedback	321	2	244.035311111111	236.397792592593	226.841944444444	50	6.5	5.55	0.35
69.969	6.50500000000001	7	miss	265	0	233.661751851852	234.000248148148	227.072	130	1.768	0.442	2.262
81.715	4.005	8	valuation	281	2	240.906259259259	242.674366666667	221.759122222222	100	1	0.3	15.6
85.72	1.405	8	rating	281	2	240.906259259259	242.674366666667	221.759122222222	100	1	0.3	15.6
87.125	0	8	response	281	2	240.906259259259	242.674366666667	221.759122222222	100	1	0.3	15.6
87.125	0.5	8	feedback	281	2	240.906259259259	242.674366666667	221.759122222222	100	1	0.3	15.6
90.966	6.504	9	miss	177	0	242.407581481482	227.46987037037	213.553496296296	100	5.5	16.5	71.8
104.36	4.004	10	valuation	528	4	230.325681481481	196.577111111111	178.462585185185	312.5	2.1875	0.3125	29.375
108.364	1.99299999999999	10	rating	528	4	230.325681481481	196.577111111111	178.462585185185	312.5	2.1875	0.3125	29.375
110.357	0	10	response	528	4	230.325681481481	196.577111111111	178.462585185185	312.5	2.1875	0.3125	29.375
110.357	0.5	10	feedback	528	4	230.325681481481	196.577111111111	178.462585185185	312.5	2.1875	0.3125	29.375
116.36	4.004	11	valuation	146	2	242.953496296296	228.415333333333	203.3177	100	6.8	9.4	34.3
120.364	0.917000000000002	11	rating	146	2	242.953496296296	228.415333333333	203.3177	100	6.8	9.4	34.3
121.281	0	11	response	146	2	242.953496296296	228.415333333333	203.3177	100	6.8	9.4	34.3
121.281	0.5	11	feedback	146	2	242.953496296296	228.415333333333	203.3177	100	6.8	9.4	34.3
124.985	4.004	12	valuation	486	4	228.249133333333	213.26007037037	195.862514814815	540	50.274	64.638	103.464
128.989	0.871000000000009	12	rating	486	4	228.249133333333	213.26007037037	195.862514814815	540	50.274	64.638	103.464
129.86	0	12	response	486	4	228.249133333333	213.26007037037	195.862514814815	540	50.274	64.638	103.464
129.86	0.5	12	feedback	486	4	228.249133333333	213.26007037037	195.862514814815	540	50.274	64.638	103.464
136.626	4.005	13	valuation	218	2	216.072659259259	201.749744444444	192.279251851852	590	5.9	1.18	62.363
140.631	2.31200000000001	13	rating	218	2	216.072659259259	201.749744444444	192.279251851852	590	5.9	1.18	62.363
142.943	0	13	response	218	2	216.072659259259	201.749744444444	192.279251851852	590	5.9	1.18	62.363
142.943	0.5	13	feedback	218	2	216.072659259259	201.749744444444	192.279251851852	590	5.9	1.18	62.363
148.057	4.00400000000002	14	valuation	269	2	231.128981481482	233.808259259259	209.526407407407	249	0.9711	4.6065	3.6354
152.061	1.66499999999999	14	rating	269	2	231.128981481482	233.808259259259	209.526407407407	249	0.9711	4.6065	3.6354
153.726	0	14	response	269	2	231.128981481482	233.808259259259	209.526407407407	249	0.9711	4.6065	3.6354
153.726	0.5	14	feedback	269	2	231.128981481482	233.808259259259	209.526407407407	249	0.9711	4.6065	3.6354
156.292	6.50299999999999	15	miss	403	0	230.25037037037	201.999262962963	185.160559259259	350	35	42	56
169.437	4.00399999999999	16	valuation	242	2	224.179066666667	218.207592592593	196.53022962963	670	3.819	1.34	20.234
173.441	1.75999999999999	16	rating	242	2	224.179066666667	218.207592592593	196.53022962963	670	3.819	1.34	20.234
175.201	0	16	response	242	2	224.179066666667	218.207592592593	196.53022962963	670	3.819	1.34	20.234
175.201	0.5	16	feedback	242	2	224.179066666667	218.207592592593	196.53022962963	670	3.819	1.34	20.234
179.669	6.50399999999999	17	miss	379	0	245.378422222222	237.3909	194.78592962963	594	6.831	1.0692	127.0566
192.552	4.005	18	valuation	318	3	237.55152962963	224.783759259259	215.41777037037	197	24.822	35.854	18.124
196.557	1.50200000000001	18	rating	318	3	237.55152962963	224.783759259259	215.41777037037	197	24.822	35.854	18.124
198.059	0	18	response	318	3	237.55152962963	224.783759259259	215.41777037037	197	24.822	35.854	18.124
198.059	0.5	18	feedback	318	3	237.55152962963	224.783759259259	215.41777037037	197	24.822	35.854	18.124
206.232	4.00399999999999	19	valuation	362	2	206.639866666667	195.098877777778	175.54102962963	120	2.4	0.24	3.72
210.236	1.18300000000002	19	rating	362	2	206.639866666667	195.098877777778	175.54102962963	120	2.4	0.24	3.72
211.419	0	19	response	362	2	206.639866666667	195.098877777778	175.54102962963	120	2.4	0.24	3.72
211.419	0.5	19	feedback	362	2	206.639866666667	195.098877777778	175.54102962963	120	2.4	0.24	3.72
215.77	4.00399999999999	20	valuation	400	2	229.885137037037	211.631592592593	195.687888888889	160	8	24	64
219.774	1.63999999999999	20	rating	400	2	229.885137037037	211.631592592593	195.687888888889	160	8	24	64
221.414	0	20	response	400	2	229.885137037037	211.631592592593	195.687888888889	160	8	24	64
221.414	0.5	20	feedback	400	2	229.885137037037	211.631592592593	195.687888888889	160	8	24	64
224.479	4.005	21	valuation	155	2	237.518407407407	227.407314814815	210.321096296296	25	1.95	5.5	15.75
228.484	1.12299999999999	21	rating	155	2	237.518407407407	227.407314814815	210.321096296296	25	1.95	5.5	15.75
229.607	0	21	response	155	2	237.518407407407	227.407314814815	210.321096296296	25	1.95	5.5	15.75
229.607	0.5	21	feedback	155	2	237.518407407407	227.407314814815	210.321096296296	25	1.95	5.5	15.75
236.121	4.00399999999999	22	valuation	122	2	235.540674074074	222.843977777778	193.680155555556	100	5.4	18.5	33.5
240.125	2.42599999999999	22	rating	122	2	235.540674074074	222.843977777778	193.680155555556	100	5.4	18.5	33.5
242.551	0	22	response	122	2	235.540674074074	222.843977777778	193.680155555556	100	5.4	18.5	33.5
242.551	0.5	22	feedback	122	2	235.540674074074	222.843977777778	193.680155555556	100	5.4	18.5	33.5
248.428	6.50399999999999	23	miss	482	0	229.967992592593	215.740125925926	197.529507407407	270	2.754	0.486	7.506
258.629	6.505	24	miss	164	0	230.836774074074	221.049474074074	210.533777777778	5.6	0.42	1.232	3.696
268.065	6.505	25	miss	133	0	234.072592592593	214.389285185185	203.67647037037	150	1.5	6	45
277.258	4.00400000000002	26	valuation	443	2	240.5417	201.828692592593	173.333833333333	40	2.2	9.2	14.4
281.262	1.47000000000003	26	rating	443	2	240.5417	201.828692592593	173.333833333333	40	2.2	9.2	14.4
282.732	0	26	response	443	2	240.5417	201.828692592593	173.333833333333	40	2.2	9.2	14.4
282.732	0.5	26	feedback	443	2	240.5417	201.828692592593	173.333833333333	40	2.2	9.2	14.4
287.329	6.505	27	miss	139	0	221.89862962963	214.391892592593	207.001503703704	100	6.2	20.7	33.3
296.639	4.00399999999996	28	valuation	21	3	246.156955555556	225.426788888889	227.67477037037	80	0.04	0	77.6
300.643	1.06	28	rating	21	3	246.156955555556	225.426788888889	227.67477037037	80	0.04	0	77.6
301.703	0	28	response	21	3	246.156955555556	225.426788888889	227.67477037037	80	0.04	0	77.6
301.703	0.5	28	feedback	21	3	246.156955555556	225.426788888889	227.67477037037	80	0.04	0	77.6
306.684	4.00399999999996	29	valuation	196	3	206.006196296296	197.354396296296	175.3604	150	2.595	0.525	5.25
310.688	0.645000000000039	29	rating	196	3	206.006196296296	197.354396296296	175.3604	150	2.595	0.525	5.25
311.333	0	29	response	196	3	206.006196296296	197.354396296296	175.3604	150	2.595	0.525	5.25
311.333	0.5	29	feedback	196	3	206.006196296296	197.354396296296	175.3604	150	2.595	0.525	5.25
316.813	4.005	30	valuation	69	1	231.089803703704	215.682885185185	191.383751851852	200	19.56	16.54	58.26
320.818	0.564000000000021	30	rating	69	1	231.089803703704	215.682885185185	191.383751851852	200	19.56	16.54	58.26
321.382	0	30	response	69	1	231.089803703704	215.682885185185	191.383751851852	200	19.56	16.54	58.26
321.382	0.5	30	feedback	69	1	231.089803703704	215.682885185185	191.383751851852	200	19.56	16.54	58.26
324.192	4.00400000000002	31	valuation	46	4	236.773455555556	224.326525925926	198.608181481481	150	6	22.005	54
328.196	0.803999999999974	31	rating	46	4	236.773455555556	224.326525925926	198.608181481481	150	6	22.005	54
329	0	31	response	46	4	236.773455555556	224.326525925926	198.608181481481	150	6	22.005	54
329	0.5	31	feedback	46	4	236.773455555556	224.326525925926	198.608181481481	150	6	22.005	54
334.367	4.00399999999996	32	valuation	480	2	235.824840740741	211.983703703704	198.319703703704	570	42.18	7.98	288.42
338.371	0.739000000000033	32	rating	480	2	235.824840740741	211.983703703704	198.319703703704	570	42.18	7.98	288.42
339.11	0	32	response	480	2	235.824840740741	211.983703703704	198.319703703704	570	42.18	7.98	288.42
339.11	0.5	32	feedback	480	2	235.824840740741	211.983703703704	198.319703703704	570	42.18	7.98	288.42
345.251	4.00400000000002	33	valuation	416	1	227.359877777778	204.405	182.503674074074	60	11.4	30	9.6
349.255	0.786999999999978	33	rating	416	1	227.359877777778	204.405	182.503674074074	60	11.4	30	9.6
350.042	0	33	response	416	1	227.359877777778	204.405	182.503674074074	60	11.4	30	9.6
350.042	0.5	33	feedback	416	1	227.359877777778	204.405	182.503674074074	60	11.4	30	9.6
357.705	4.00400000000002	34	valuation	276	2	242.81227037037	235.762537037037	194.053281481481	262.5	1.18125	0.9975	13.57125
361.709	1.048	34	rating	276	2	242.81227037037	235.762537037037	194.053281481481	262.5	1.18125	0.9975	13.57125
362.757	0	34	response	276	2	242.81227037037	235.762537037037	194.053281481481	262.5	1.18125	0.9975	13.57125
362.757	0.5	34	feedback	276	2	242.81227037037	235.762537037037	194.053281481481	262.5	1.18125	0.9975	13.57125
370.043	4.00400000000002	35	valuation	385	2	245.082577777778	237.646314814815	222.607103703704	250	10.25	5.25	82.5
374.047	0.83099999999996	35	rating	385	2	245.082577777778	237.646314814815	222.607103703704	250	10.25	5.25	82.5
374.878	0	35	response	385	2	245.082577777778	237.646314814815	222.607103703704	250	10.25	5.25	82.5
374.878	0.5	35	feedback	385	2	245.082577777778	237.646314814815	222.607103703704	250	10.25	5.25	82.5
381.516	6.505	36	miss	93	0	212.625351851852	187.828759259259	178.133451851852	180	9	39.6	77.4
395.811	4.00700000000001	37	valuation	192	3	235.551411111111	214.036388888889	197.404074074074	150	0.465	0.6	17.1
399.818	0.915999999999997	37	rating	192	3	235.551411111111	214.036388888889	197.404074074074	150	0.465	0.6	17.1
400.734	0	37	response	192	3	235.551411111111	214.036388888889	197.404074074074	150	0.465	0.6	17.1
400.734	0.5	37	feedback	192	3	235.551411111111	214.036388888889	197.404074074074	150	0.465	0.6	17.1
408.787	6.505	38	miss	118	0	238.908655555556	227.220633333333	216.094551851852	250	3.5	14.9	73.2
423.339	4.00999999999999	39	valuation	358	1	249.352437037037	240.240362962963	221.415944444444	250	2.5	0	22.5
427.349	1.27699999999999	39	rating	358	1	249.352437037037	240.240362962963	221.415944444444	250	2.5	0	22.5
428.626	0	39	response	358	1	249.352437037037	240.240362962963	221.415944444444	250	2.5	0	22.5
428.626	0.5	39	feedback	358	1	249.352437037037	240.240362962963	221.415944444444	250	2.5	0	22.5
436.55	4.00399999999996	40	valuation	87	3	223.286288888889	209.11392962963	188.684481481482	236	28.32	28.32	33.04
440.554	1.41600000000005	40	rating	87	3	223.286288888889	209.11392962963	188.684481481482	236	28.32	28.32	33.04
441.97	0	40	response	87	3	223.286288888889	209.11392962963	188.684481481482	236	28.32	28.32	33.04
441.97	0.5	40	feedback	87	3	223.286288888889	209.11392962963	188.684481481482	236	28.32	28.32	33.04
446.058	4.00400000000002	41	valuation	533	2	243.899425925926	223.493911111111	174.903544444444	20	1	6.4	7.4
450.062	1.67899999999997	41	rating	533	2	243.899425925926	223.493911111111	174.903544444444	20	1	6.4	7.4
451.741	0	41	response	533	2	243.899425925926	223.493911111111	174.903544444444	20	1	6.4	7.4
451.741	0.5	41	feedback	533	2	243.899425925926	223.493911111111	174.903544444444	20	1	6.4	7.4
454.432	6.50399999999996	42	miss	9	0	232.070888888889	216.652388888889	201.2447	42	3.8178	10.08	23.94
463.36	6.50399999999996	43	miss	397	0	205.286366666667	197.069281481481	197.402355555556	200	1.4	0.6	31.2
476.374	6.505	44	miss	51	0	226.266981481481	216.113044444444	199.440296296296	500	32.05	84.25	212.6
490.163	6.50799999999998	45	miss	485	0	221.14522962963	200.916974074074	187.894614814815	550	46.475	56.1	114.785
502.541	6.50600000000003	46	miss	10	0	235.360514814815	227.360366666667	213.76962962963	250	8.35	16.825	40.125
513.768	4.00400000000002	47	valuation	487	3	223.586411111111	217.629103703704	198.619337037037	110	8.8	8.14	45.65
517.772	2.1579999999999	47	rating	487	3	223.586411111111	217.629103703704	198.619337037037	110	8.8	8.14	45.65
519.93	0	47	response	487	3	223.586411111111	217.629103703704	198.619337037037	110	8.8	8.14	45.65
519.93	0.5	47	feedback	487	3	223.586411111111	217.629103703704	198.619337037037	110	8.8	8.14	45.65
524.655	4.00400000000002	48	valuation	134	3	233.039818518519	219.986803703704	203.065248148148	75	4.65	15.525	36.75
528.659	1.15600000000006	48	rating	134	3	233.039818518519	219.986803703704	203.065248148148	75	4.65	15.525	36.75
529.815	0	48	response	134	3	233.039818518519	219.986803703704	203.065248148148	75	4.65	15.525	36.75
529.815	0.5	48	feedback	134	3	233.039818518519	219.986803703704	203.065248148148	75	4.65	15.525	36.75
