onset	duration	trial_id	trial_type	image_id	rating_value	red	green	blue	gram	protein	fat	carb
10.049	4.008	1	valuation	439	1	250.754066666667	242.448981481481	224.900192592593	25	1.84	0.835	11.9225
14.057	0.821	1	rating	439	1	250.754066666667	242.448981481481	224.900192592593	25	1.84	0.835	11.9225
14.878	0	1	response	439	1	250.754066666667	242.448981481481	224.900192592593	25	1.84	0.835	11.9225
14.878	0.5	1	feedback	439	1	250.754066666667	242.448981481481	224.900192592593	25	1.84	0.835	11.9225
22.789	4.004	2	valuation	38	4	234.046337037037	225.745488888889	214.159877777778	120	5.316	11.52	26.064
26.793	0.898	2	rating	38	4	234.046337037037	225.745488888889	214.159877777778	120	5.316	11.52	26.064
27.691	0	2	response	38	4	234.046337037037	225.745488888889	214.159877777778	120	5.316	11.52	26.064
27.691	0.5	2	feedback	38	4	234.046337037037	225.745488888889	214.159877777778	120	5.316	11.52	26.064
34.539	4.006	3	valuation	140	4	225.786892592593	215.802959259259	208.415466666667	65	2.47	10.985	15.99
38.545	1.16	3	rating	140	4	225.786892592593	215.802959259259	208.415466666667	65	2.47	10.985	15.99
39.705	0	3	response	140	4	225.786892592593	215.802959259259	208.415466666667	65	2.47	10.985	15.99
39.705	0.5	3	feedback	140	4	225.786892592593	215.802959259259	208.415466666667	65	2.47	10.985	15.99
47.909	4.004	4	valuation	148	2	240.700507407407	220.849611111111	192.7112	35	2.345	10.15	21.7
51.913	1.968	4	rating	148	2	240.700507407407	220.849611111111	192.7112	35	2.345	10.15	21.7
53.881	0	4	response	148	2	240.700507407407	220.849611111111	192.7112	35	2.345	10.15	21.7
53.881	0.5	4	feedback	148	2	240.700507407407	220.849611111111	192.7112	35	2.345	10.15	21.7
56.423	4.006	5	valuation	471	3	237.820407407407	225.39417037037	215.471785185185	408	24.2352	33.2928	138.7608
60.429	1.097	5	rating	471	3	237.820407407407	225.39417037037	215.471785185185	408	24.2352	33.2928	138.7608
61.526	0	5	response	471	3	237.820407407407	225.39417037037	215.471785185185	408	24.2352	33.2928	138.7608
61.526	0.5	5	feedback	471	3	237.820407407407	225.39417037037	215.471785185185	408	24.2352	33.2928	138.7608
66.182	4.004	6	valuation	447	2	212.686603703704	211.018374074074	167.308322222222	130	4.29	0.546	12.064
70.186	0.884999999999991	6	rating	447	2	212.686603703704	211.018374074074	167.308322222222	130	4.29	0.546	12.064
71.071	0	6	response	447	2	212.686603703704	211.018374074074	167.308322222222	130	4.29	0.546	12.064
71.071	0.5	6	feedback	447	2	212.686603703704	211.018374074074	167.308322222222	130	4.29	0.546	12.064
74.525	4.005	7	valuation	267	1	227.865096296296	232.796862962963	224.333814814815	220	0.946	0.308	2.86
78.53	0.525000000000006	7	rating	267	1	227.865096296296	232.796862962963	224.333814814815	220	0.946	0.308	2.86
79.055	0	7	response	267	1	227.865096296296	232.796862962963	224.333814814815	220	0.946	0.308	2.86
79.055	0.5	7	feedback	267	1	227.865096296296	232.796862962963	224.333814814815	220	0.946	0.308	2.86
87.079	4.006	8	valuation	204	1	225.075844444444	209.55872962963	187.369118518519	1350	4.185	5.4	153.9
91.085	1.07400000000001	8	rating	204	1	225.075844444444	209.55872962963	187.369118518519	1350	4.185	5.4	153.9
92.159	0	8	response	204	1	225.075844444444	209.55872962963	187.369118518519	1350	4.185	5.4	153.9
92.159	0.5	8	feedback	204	1	225.075844444444	209.55872962963	187.369118518519	1350	4.185	5.4	153.9
98.868	4.004	9	valuation	52	2	221.637525925926	199.60527037037	174.717081481481	115	10.5777	11.3735	30.23695
102.872	2.294	9	rating	52	2	221.637525925926	199.60527037037	174.717081481481	115	10.5777	11.3735	30.23695
105.166	0	9	response	52	2	221.637525925926	199.60527037037	174.717081481481	115	10.5777	11.3735	30.23695
105.166	0.5	9	feedback	52	2	221.637525925926	199.60527037037	174.717081481481	115	10.5777	11.3735	30.23695
109.415	4.006	10	valuation	391	3	208.474548148148	200.291181481481	200.220840740741	300	2.1	0.9	46.8
113.421	1.872	10	rating	391	3	208.474548148148	200.291181481481	200.220840740741	300	2.1	0.9	46.8
115.293	0	10	response	391	3	208.474548148148	200.291181481481	200.220840740741	300	2.1	0.9	46.8
115.293	0.5	10	feedback	391	3	208.474548148148	200.291181481481	200.220840740741	300	2.1	0.9	46.8
118.351	4.004	11	valuation	521	2	213.552314814815	208.950174074074	177.92487037037	600	42.3	7.8	199.2
122.355	0.825000000000003	11	rating	521	2	213.552314814815	208.950174074074	177.92487037037	600	42.3	7.8	199.2
123.18	0	11	response	521	2	213.552314814815	208.950174074074	177.92487037037	600	42.3	7.8	199.2
123.18	0.5	11	feedback	521	2	213.552314814815	208.950174074074	177.92487037037	600	42.3	7.8	199.2
130.437	4.00399999999999	12	valuation	77	4	239.229648148148	230.744422222222	213.857251851852	266	20.9874	23.807	62.111
134.441	0.681999999999988	12	rating	77	4	239.229648148148	230.744422222222	213.857251851852	266	20.9874	23.807	62.111
135.123	0	12	response	77	4	239.229648148148	230.744422222222	213.857251851852	266	20.9874	23.807	62.111
135.123	0.5	12	feedback	77	4	239.229648148148	230.744422222222	213.857251851852	266	20.9874	23.807	62.111
140.281	4.00399999999999	13	valuation	32	4	205.8006	176.317555555556	148.889348148148	550	36.025	31.02	116.985
144.285	0.884000000000015	13	rating	32	4	205.8006	176.317555555556	148.889348148148	550	36.025	31.02	116.985
145.169	0	13	response	32	4	205.8006	176.317555555556	148.889348148148	550	36.025	31.02	116.985
145.169	0.5	13	feedback	32	4	205.8006	176.317555555556	148.889348148148	550	36.025	31.02	116.985
148.124	4.00800000000001	14	valuation	184	3	229.436533333333	217.155248148148	204.94587037037	170	11.56	57.12	85.51
152.132	1.749	14	rating	184	3	229.436533333333	217.155248148148	204.94587037037	170	11.56	57.12	85.51
153.881	0	14	response	184	3	229.436533333333	217.155248148148	204.94587037037	170	11.56	57.12	85.51
153.881	0.5	14	feedback	184	3	229.436533333333	217.155248148148	204.94587037037	170	11.56	57.12	85.51
157.099	4.00400000000002	15	valuation	563	4	205.155837037037	178.38022962963	167.458940740741	210	39.9	6.09	2.73
161.103	0.871999999999986	15	rating	563	4	205.155837037037	178.38022962963	167.458940740741	210	39.9	6.09	2.73
161.975	0	15	response	563	4	205.155837037037	178.38022962963	167.458940740741	210	39.9	6.09	2.73
161.975	0.5	15	feedback	563	4	205.155837037037	178.38022962963	167.458940740741	210	39.9	6.09	2.73
164.781	4.017	16	valuation	556	4	239.141874074074	225.261618518519	210.837848148148	300	66.3	23.4	23.4
168.798	0.983000000000004	16	rating	556	4	239.141874074074	225.261618518519	210.837848148148	300	66.3	23.4	23.4
169.781	0	16	response	556	4	239.141874074074	225.261618518519	210.837848148148	300	66.3	23.4	23.4
169.781	0.5	16	feedback	556	4	239.141874074074	225.261618518519	210.837848148148	300	66.3	23.4	23.4
174.305	4.00399999999999	17	valuation	467	1	235.438548148148	183.369574074074	185.718259259259	5	0.065	0.015	0.24
178.309	0.613	17	rating	467	1	235.438548148148	183.369574074074	185.718259259259	5	0.065	0.015	0.24
178.922	0	17	response	467	1	235.438548148148	183.369574074074	185.718259259259	5	0.065	0.015	0.24
178.922	0.5	17	feedback	467	1	235.438548148148	183.369574074074	185.718259259259	5	0.065	0.015	0.24
185.368	4.006	18	valuation	299	1	201.18262962963	197.734925925926	162.005540740741	380	13.414	1.444	19
189.374	0.859000000000009	18	rating	299	1	201.18262962963	197.734925925926	162.005540740741	380	13.414	1.444	19
190.233	0	18	response	299	1	201.18262962963	197.734925925926	162.005540740741	380	13.414	1.444	19
190.233	0.5	18	feedback	299	1	201.18262962963	197.734925925926	162.005540740741	380	13.414	1.444	19
195.117	4.00400000000002	19	valuation	375	4	231.285433333333	216.0187	196.0478	74	4.144	22.644	33.152
199.121	0.745000000000005	19	rating	375	4	231.285433333333	216.0187	196.0478	74	4.144	22.644	33.152
199.866	0	19	response	375	4	231.285433333333	216.0187	196.0478	74	4.144	22.644	33.152
199.866	0.5	19	feedback	375	4	231.285433333333	216.0187	196.0478	74	4.144	22.644	33.152
203.462	4.00400000000002	20	valuation	319	3	233.153577777778	211.589825925926	200.948622222222	2000	364	344	0
207.466	1.00999999999999	20	rating	319	3	233.153577777778	211.589825925926	200.948622222222	2000	364	344	0
208.476	0	20	response	319	3	233.153577777778	211.589825925926	200.948622222222	2000	364	344	0
208.476	0.5	20	feedback	319	3	233.153577777778	211.589825925926	200.948622222222	2000	364	344	0
213.758	4.005	21	valuation	492	3	230.247018518519	212.301574074074	191.626448148148	489	13.203	42.054	114.915
217.763	0.775999999999982	21	rating	492	3	230.247018518519	212.301574074074	191.626448148148	489	13.203	42.054	114.915
218.539	0	21	response	492	3	230.247018518519	212.301574074074	191.626448148148	489	13.203	42.054	114.915
218.539	0.5	21	feedback	492	3	230.247018518519	212.301574074074	191.626448148148	489	13.203	42.054	114.915
224.776	4.00699999999998	22	valuation	450	2	230.039977777778	202.773103703704	181.145396296296	182	21.7672	112.112	19.1828
228.783	1.27800000000002	22	rating	450	2	230.039977777778	202.773103703704	181.145396296296	182	21.7672	112.112	19.1828
230.061	0	22	response	450	2	230.039977777778	202.773103703704	181.145396296296	182	21.7672	112.112	19.1828
230.061	0.5	22	feedback	450	2	230.039977777778	202.773103703704	181.145396296296	182	21.7672	112.112	19.1828
236.4	4.005	23	valuation	400	4	229.885137037037	211.631592592593	195.687888888889	160	8	24	64
240.405	0.992999999999995	23	rating	400	4	229.885137037037	211.631592592593	195.687888888889	160	8	24	64
241.398	0	23	response	400	4	229.885137037037	211.631592592593	195.687888888889	160	8	24	64
241.398	0.5	23	feedback	400	4	229.885137037037	211.631592592593	195.687888888889	160	8	24	64
247.332	4.00300000000001	24	valuation	92	3	242.662940740741	227.70252962963	196.131222222222	600	150	210	0
251.335	1.00899999999999	24	rating	92	3	242.662940740741	227.70252962963	196.131222222222	600	150	210	0
252.344	0	24	response	92	3	242.662940740741	227.70252962963	196.131222222222	600	150	210	0
252.344	0.5	24	feedback	92	3	242.662940740741	227.70252962963	196.131222222222	600	150	210	0
260.623	4.00400000000002	25	valuation	567	4	227.464122222222	202.702303703704	182.334788888889	120	7.8	6.36	2.4
264.627	0.860000000000014	25	rating	567	4	227.464122222222	202.702303703704	182.334788888889	120	7.8	6.36	2.4
265.487	0	25	response	567	4	227.464122222222	202.702303703704	182.334788888889	120	7.8	6.36	2.4
265.487	0.5	25	feedback	567	4	227.464122222222	202.702303703704	182.334788888889	120	7.8	6.36	2.4
272.078	4.01700000000005	26	valuation	442	1	251.495488888889	214.690540740741	192.511748148148	170	2.21	0.85	10.88
276.095	1.25799999999998	26	rating	442	1	251.495488888889	214.690540740741	192.511748148148	170	2.21	0.85	10.88
277.353	0	26	response	442	1	251.495488888889	214.690540740741	192.511748148148	170	2.21	0.85	10.88
277.353	0.5	26	feedback	442	1	251.495488888889	214.690540740741	192.511748148148	170	2.21	0.85	10.88
281.351	4.00400000000002	27	valuation	562	4	231.3686	211.666466666667	195.852359259259	300	66	15	0
285.355	0.70599999999996	27	rating	562	4	231.3686	211.666466666667	195.852359259259	300	66	15	0
286.061	0	27	response	562	4	231.3686	211.666466666667	195.852359259259	300	66	15	0
286.061	0.5	27	feedback	562	4	231.3686	211.666466666667	195.852359259259	300	66	15	0
293.16	4.00699999999995	28	valuation	100	4	212.79622962963	209.737725925926	209.198748148148	1200	55.2	228	343.2
297.167	1.959	28	rating	100	4	212.79622962963	209.737725925926	209.198748148148	1200	55.2	228	343.2
299.126	0	28	response	100	4	212.79622962963	209.737725925926	209.198748148148	1200	55.2	228	343.2
299.126	0.5	28	feedback	100	4	212.79622962963	209.737725925926	209.198748148148	1200	55.2	228	343.2
303.224	4.00200000000001	29	valuation	256	2	244.840307407407	205.061040740741	186.122466666667	500	2	0.5	29.55
307.226	1.238	29	rating	256	2	244.840307407407	205.061040740741	186.122466666667	500	2	0.5	29.55
308.464	0	29	response	256	2	244.840307407407	205.061040740741	186.122466666667	500	2	0.5	29.55
308.464	0.5	29	feedback	256	2	244.840307407407	205.061040740741	186.122466666667	500	2	0.5	29.55
316.213	4.00700000000001	30	valuation	291	3	246.073059259259	241.529374074074	239.66687037037	11	0.44	3.5431	5.885
320.22	0.756999999999948	30	rating	291	3	246.073059259259	241.529374074074	239.66687037037	11	0.44	3.5431	5.885
320.977	0	30	response	291	3	246.073059259259	241.529374074074	239.66687037037	11	0.44	3.5431	5.885
320.977	0.5	30	feedback	291	3	246.073059259259	241.529374074074	239.66687037037	11	0.44	3.5431	5.885
328.488	4.00700000000001	31	valuation	128	2	235.053166666667	226.200637037037	221.721766666667	2000	20	6	1900
332.495	2.09199999999998	31	rating	128	2	235.053166666667	226.200637037037	221.721766666667	2000	20	6	1900
334.587	0	31	response	128	2	235.053166666667	226.200637037037	221.721766666667	2000	20	6	1900
334.587	0.5	31	feedback	128	2	235.053166666667	226.200637037037	221.721766666667	2000	20	6	1900
340.394	4.01600000000002	32	valuation	566	3	235.618392592593	221.82207037037	213.100407407407	190	8.55	6.65	3.8
344.41	1.37899999999996	32	rating	566	3	235.618392592593	221.82207037037	213.100407407407	190	8.55	6.65	3.8
345.789	0	32	response	566	3	235.618392592593	221.82207037037	213.100407407407	190	8.55	6.65	3.8
345.789	0.5	32	feedback	566	3	235.618392592593	221.82207037037	213.100407407407	190	8.55	6.65	3.8
350.551	4.00400000000002	33	valuation	436	1	242.090233333333	230.336774074074	170.7118	85	0.85	0.255	5.695
354.555	1	33	rating	436	1	242.090233333333	230.336774074074	170.7118	85	0.85	0.255	5.695
355.555	0	33	response	436	1	242.090233333333	230.336774074074	170.7118	85	0.85	0.255	5.695
355.555	0.5	33	feedback	436	1	242.090233333333	230.336774074074	170.7118	85	0.85	0.255	5.695
362.545	4.00599999999997	34	valuation	424	1	203.596696296296	216.749440740741	193.937025925926	130	7.02	0.26	20.28
366.551	1.38	34	rating	424	1	203.596696296296	216.749440740741	193.937025925926	130	7.02	0.26	20.28
367.931	0	34	response	424	1	203.596696296296	216.749440740741	193.937025925926	130	7.02	0.26	20.28
367.931	0.5	34	feedback	424	1	203.596696296296	216.749440740741	193.937025925926	130	7.02	0.26	20.28
371.252	4.00700000000001	35	valuation	438	1	244.739322222222	223.224444444444	202.146422222222	60	0.78	0.12	2.94
375.259	1.08099999999996	35	rating	438	1	244.739322222222	223.224444444444	202.146422222222	60	0.78	0.12	2.94
376.34	0	35	response	438	1	244.739322222222	223.224444444444	202.146422222222	60	0.78	0.12	2.94
376.34	0.5	35	feedback	438	1	244.739322222222	223.224444444444	202.146422222222	60	0.78	0.12	2.94
384.767	4.00700000000001	36	valuation	224	3	204.284585185185	186.762425925926	184.890859259259	100	1	0.5	6
388.774	0.812000000000012	36	rating	224	3	204.284585185185	186.762425925926	184.890859259259	100	1	0.5	6
389.586	0	36	response	224	3	204.284585185185	186.762425925926	184.890859259259	100	1	0.5	6
389.586	0.5	36	feedback	224	3	204.284585185185	186.762425925926	184.890859259259	100	1	0.5	6
397.228	4.00299999999999	37	valuation	361	1	239.194337037037	196.791448148148	169.356607407407	150	1.95	0.3	7.8
401.231	0.927999999999997	37	rating	361	1	239.194337037037	196.791448148148	169.356607407407	150	1.95	0.3	7.8
402.159	0	37	response	361	1	239.194337037037	196.791448148148	169.356607407407	150	1.95	0.3	7.8
402.159	0.5	37	feedback	361	1	239.194337037037	196.791448148148	169.356607407407	150	1.95	0.3	7.8
410.723	4.01299999999998	38	valuation	464	2	218.83512962963	197.774214814815	167.656703703704	1990	8.358	2.587	234.024
414.736	1.50800000000004	38	rating	464	2	218.83512962963	197.774214814815	167.656703703704	1990	8.358	2.587	234.024
416.244	0	38	response	464	2	218.83512962963	197.774214814815	167.656703703704	1990	8.358	2.587	234.024
416.244	0.5	38	feedback	464	2	218.83512962963	197.774214814815	167.656703703704	1990	8.358	2.587	234.024
421.926	4.00400000000002	39	valuation	321	2	244.035311111111	236.397792592593	226.841944444444	50	6.5	5.55	0.35
425.93	1.863	39	rating	321	2	244.035311111111	236.397792592593	226.841944444444	50	6.5	5.55	0.35
427.793	0	39	response	321	2	244.035311111111	236.397792592593	226.841944444444	50	6.5	5.55	0.35
427.793	0.5	39	feedback	321	2	244.035311111111	236.397792592593	226.841944444444	50	6.5	5.55	0.35
431.64	4.01800000000003	40	valuation	422	3	244.883433333333	225.257766666667	206.887925925926	120	2.88	18.24	30.24
435.658	2.178	40	rating	422	3	244.883433333333	225.257766666667	206.887925925926	120	2.88	18.24	30.24
437.836	0	40	response	422	3	244.883433333333	225.257766666667	206.887925925926	120	2.88	18.24	30.24
437.836	0.5	40	feedback	422	3	244.883433333333	225.257766666667	206.887925925926	120	2.88	18.24	30.24
443.378	4.00400000000002	41	valuation	304	4	243.904940740741	229.072385185185	192.886733333333	400	8	22.8	44.8
447.382	0.925000000000011	41	rating	304	4	243.904940740741	229.072385185185	192.886733333333	400	8	22.8	44.8
448.307	0	41	response	304	4	243.904940740741	229.072385185185	192.886733333333	400	8	22.8	44.8
448.307	0.5	41	feedback	304	4	243.904940740741	229.072385185185	192.886733333333	400	8	22.8	44.8
452.674	4.00600000000003	42	valuation	214	2	217.923725925926	202.65282962963	198.649962962963	125	1.25	0.625	7.5
456.68	1.74799999999999	42	rating	214	2	217.923725925926	202.65282962963	198.649962962963	125	1.25	0.625	7.5
458.428	0	42	response	214	2	217.923725925926	202.65282962963	198.649962962963	125	1.25	0.625	7.5
458.428	0.5	42	feedback	214	2	217.923725925926	202.65282962963	198.649962962963	125	1.25	0.625	7.5
463.456	4.00599999999997	43	valuation	56	3	230.325433333333	221.73747037037	215.9782	150	6	16.005	40.005
467.462	0.799000000000035	43	rating	56	3	230.325433333333	221.73747037037	215.9782	150	6	16.005	40.005
468.261	0	43	response	56	3	230.325433333333	221.73747037037	215.9782	150	6	16.005	40.005
468.261	0.5	43	feedback	56	3	230.325433333333	221.73747037037	215.9782	150	6	16.005	40.005
474.328	4.00400000000002	44	valuation	516	1	246.259725925926	224.502585185185	202.23197037037	180	41.4	54	0
478.332	0.99799999999999	44	rating	516	1	246.259725925926	224.502585185185	202.23197037037	180	41.4	54	0
479.33	0	44	response	516	1	246.259725925926	224.502585185185	202.23197037037	180	41.4	54	0
479.33	0.5	44	feedback	516	1	246.259725925926	224.502585185185	202.23197037037	180	41.4	54	0
486.703	4.00800000000004	45	valuation	211	3	200.386403703704	192.532311111111	195.237788888889	125	0.975	0.4875	6.6625
490.711	1.27499999999998	45	rating	211	3	200.386403703704	192.532311111111	195.237788888889	125	0.975	0.4875	6.6625
491.986	0	45	response	211	3	200.386403703704	192.532311111111	195.237788888889	125	0.975	0.4875	6.6625
491.986	0.5	45	feedback	211	3	200.386403703704	192.532311111111	195.237788888889	125	0.975	0.4875	6.6625
495.695	4.00400000000002	46	valuation	410	2	234.31097037037	214.737685185185	193.043496296296	300	75.9	144.3	24.9
499.699	1.36799999999999	46	rating	410	2	234.31097037037	214.737685185185	193.043496296296	300	75.9	144.3	24.9
501.067	0	46	response	410	2	234.31097037037	214.737685185185	193.043496296296	300	75.9	144.3	24.9
501.067	0.5	46	feedback	410	2	234.31097037037	214.737685185185	193.043496296296	300	75.9	144.3	24.9
506.486	4.00400000000002	47	valuation	194	2	218.023318518519	218.78382962963	201.719222222222	50	0.435	0.275	4.685
510.49	1.16399999999999	47	rating	194	2	218.023318518519	218.78382962963	201.719222222222	50	0.435	0.275	4.685
511.654	0	47	response	194	2	218.023318518519	218.78382962963	201.719222222222	50	0.435	0.275	4.685
511.654	0.5	47	feedback	194	2	218.023318518519	218.78382962963	201.719222222222	50	0.435	0.275	4.685
