onset	duration	trial_id	trial_type	image_id	rating_value	red	green	blue	gram	protein	fat	carb
10.021	4.004	1	valuation	546	3	238.084477777778	194.214203703704	165.920355555556	500	139.5	67	0
14.025	1.249	1	rating	546	3	238.084477777778	194.214203703704	165.920355555556	500	139.5	67	0
15.274	0	1	response	546	3	238.084477777778	194.214203703704	165.920355555556	500	139.5	67	0
15.274	0.5	1	feedback	546	3	238.084477777778	194.214203703704	165.920355555556	500	139.5	67	0
22.529	4.004	2	valuation	281	2	240.906259259259	242.674366666667	221.759122222222	100	1	0.3	15.6
26.533	0.765999999999998	2	rating	281	2	240.906259259259	242.674366666667	221.759122222222	100	1	0.3	15.6
27.299	0	2	response	281	2	240.906259259259	242.674366666667	221.759122222222	100	1	0.3	15.6
27.299	0.5	2	feedback	281	2	240.906259259259	242.674366666667	221.759122222222	100	1	0.3	15.6
34.137	4.005	3	valuation	235	1	233.06632962963	208.093485185185	191.518381481481	640	4.608	0.896	42.368
38.142	0.721999999999994	3	rating	235	1	233.06632962963	208.093485185185	191.518381481481	640	4.608	0.896	42.368
38.864	0	3	response	235	1	233.06632962963	208.093485185185	191.518381481481	640	4.608	0.896	42.368
38.864	0.5	3	feedback	235	1	233.06632962963	208.093485185185	191.518381481481	640	4.608	0.896	42.368
41.996	4.004	4	valuation	50	4	222.691766666667	203.613559259259	183.986959259259	750	46.05	120.15	208.2
46	0.710000000000001	4	rating	50	4	222.691766666667	203.613559259259	183.986959259259	750	46.05	120.15	208.2
46.71	0	4	response	50	4	222.691766666667	203.613559259259	183.986959259259	750	46.05	120.15	208.2
46.71	0.5	4	feedback	50	4	222.691766666667	203.613559259259	183.986959259259	750	46.05	120.15	208.2
53.446	4.005	5	valuation	493	4	214.18657037037	193.589940740741	182.915685185185	590	50.917	66.434	109.504
57.451	0.966999999999999	5	rating	493	4	214.18657037037	193.589940740741	182.915685185185	590	50.917	66.434	109.504
58.418	0	5	response	493	4	214.18657037037	193.589940740741	182.915685185185	590	50.917	66.434	109.504
58.418	0.5	5	feedback	493	4	214.18657037037	193.589940740741	182.915685185185	590	50.917	66.434	109.504
61.611	4.005	6	valuation	31	3	242.689322222222	238.060522222222	230.73662962963	24	1.8672	6.1536	13.6344
65.616	1.29000000000001	6	rating	31	3	242.689322222222	238.060522222222	230.73662962963	24	1.8672	6.1536	13.6344
66.906	0	6	response	31	3	242.689322222222	238.060522222222	230.73662962963	24	1.8672	6.1536	13.6344
66.906	0.5	6	feedback	31	3	242.689322222222	238.060522222222	230.73662962963	24	1.8672	6.1536	13.6344
69.462	4.005	7	valuation	53	2	230.338377777778	209.626933333333	185.39507037037	115	10.5777	11.3735	30.23695
73.467	1.32300000000001	7	rating	53	2	230.338377777778	209.626933333333	185.39507037037	115	10.5777	11.3735	30.23695
74.79	0	7	response	53	2	230.338377777778	209.626933333333	185.39507037037	115	10.5777	11.3735	30.23695
74.79	0.5	7	feedback	53	2	230.338377777778	209.626933333333	185.39507037037	115	10.5777	11.3735	30.23695
78.637	4.004	8	valuation	16	3	231.443377777778	213.845492592593	198.130418518519	800	62.88	160	360
82.641	1.55999999999999	8	rating	16	3	231.443377777778	213.845492592593	198.130418518519	800	62.88	160	360
84.201	0	8	response	16	3	231.443377777778	213.845492592593	198.130418518519	800	62.88	160	360
84.201	0.5	8	feedback	16	3	231.443377777778	213.845492592593	198.130418518519	800	62.88	160	360
92.353	4.006	9	valuation	30	2	231.086585185185	212.687988888889	188.667337037037	900	155.61	73.26	33.3
96.359	0.907000000000011	9	rating	30	2	231.086585185185	212.687988888889	188.667337037037	900	155.61	73.26	33.3
97.266	0	9	response	30	2	231.086585185185	212.687988888889	188.667337037037	900	155.61	73.26	33.3
97.266	0.5	9	feedback	30	2	231.086585185185	212.687988888889	188.667337037037	900	155.61	73.26	33.3
102.025	4.005	10	valuation	249	1	227.740374074074	228.878825925926	212.286907407407	1900	28.88	3.23	27.55
106.03	1.027	10	rating	249	1	227.740374074074	228.878825925926	212.286907407407	1900	28.88	3.23	27.55
107.057	0	10	response	249	1	227.740374074074	228.878825925926	212.286907407407	1900	28.88	3.23	27.55
107.057	0.5	10	feedback	249	1	227.740374074074	228.878825925926	212.286907407407	1900	28.88	3.23	27.55
109.759	4.004	11	valuation	403	3	230.25037037037	201.999262962963	185.160559259259	350	35	42	56
113.763	0.781999999999996	11	rating	403	3	230.25037037037	201.999262962963	185.160559259259	350	35	42	56
114.545	0	11	response	403	3	230.25037037037	201.999262962963	185.160559259259	350	35	42	56
114.545	0.5	11	feedback	403	3	230.25037037037	201.999262962963	185.160559259259	350	35	42	56
123.099	4.00699999999999	12	valuation	338	1	221.165081481481	207.295811111111	204.795507407407	120	4.32	2.52	89.28
127.106	0.899000000000001	12	rating	338	1	221.165081481481	207.295811111111	204.795507407407	120	4.32	2.52	89.28
128.005	0	12	response	338	1	221.165081481481	207.295811111111	204.795507407407	120	4.32	2.52	89.28
128.005	0.5	12	feedback	338	1	221.165081481481	207.295811111111	204.795507407407	120	4.32	2.52	89.28
136.417	4.012	13	valuation	366	4	229.108548148148	207.484762962963	186.527814814815	180	20.484	7.056	90.72
140.429	1.13399999999999	13	rating	366	4	229.108548148148	207.484762962963	186.527814814815	180	20.484	7.056	90.72
141.563	0	13	response	366	4	229.108548148148	207.484762962963	186.527814814815	180	20.484	7.056	90.72
141.563	0.5	13	feedback	366	4	229.108548148148	207.484762962963	186.527814814815	180	20.484	7.056	90.72
147.627	4.00399999999999	14	valuation	510	4	216.084177777778	207.886733333333	199.991722222222	51	1.938	8.466	35.751
151.631	2.32300000000001	14	rating	510	4	216.084177777778	207.886733333333	199.991722222222	51	1.938	8.466	35.751
153.954	0	14	response	510	4	216.084177777778	207.886733333333	199.991722222222	51	1.938	8.466	35.751
153.954	0.5	14	feedback	510	4	216.084177777778	207.886733333333	199.991722222222	51	1.938	8.466	35.751
160.935	4.00999999999999	15	valuation	250	1	225.751803703704	230.205974074074	219.956911111111	500	10.75	0.65	8.15
164.945	0.894000000000005	15	rating	250	1	225.751803703704	230.205974074074	219.956911111111	500	10.75	0.65	8.15
165.839	0	15	response	250	1	225.751803703704	230.205974074074	219.956911111111	500	10.75	0.65	8.15
165.839	0.5	15	feedback	250	1	225.751803703704	230.205974074074	219.956911111111	500	10.75	0.65	8.15
174.112	4.00700000000001	16	valuation	158	2	240.114377777778	223.642777777778	199.765466666667	48	2.928	10.08	32.64
178.119	1.94900000000001	16	rating	158	2	240.114377777778	223.642777777778	199.765466666667	48	2.928	10.08	32.64
180.068	0	16	response	158	2	240.114377777778	223.642777777778	199.765466666667	48	2.928	10.08	32.64
180.068	0.5	16	feedback	158	2	240.114377777778	223.642777777778	199.765466666667	48	2.928	10.08	32.64
187.687	4.00399999999999	17	valuation	248	1	224.806459259259	224.496444444444	225.375659259259	60	0.36	0.36	4.38
191.691	0.715000000000003	17	rating	248	1	224.806459259259	224.496444444444	225.375659259259	60	0.36	0.36	4.38
192.406	0	17	response	248	1	224.806459259259	224.496444444444	225.375659259259	60	0.36	0.36	4.38
192.406	0.5	17	feedback	248	1	224.806459259259	224.496444444444	225.375659259259	60	0.36	0.36	4.38
197.819	4.00500000000002	18	valuation	494	1	242.279511111111	229.845	217.972233333333	10	1	1.6	6.4
201.824	1.14599999999999	18	rating	494	1	242.279511111111	229.845	217.972233333333	10	1	1.6	6.4
202.97	0	18	response	494	1	242.279511111111	229.845	217.972233333333	10	1	1.6	6.4
202.97	0.5	18	feedback	494	1	242.279511111111	229.845	217.972233333333	10	1	1.6	6.4
207.994	4.005	19	valuation	171	3	225.838885185185	222.008844444444	220.679944444444	19.5	0.585	1.95	13.455
211.999	0.760999999999996	19	rating	171	3	225.838885185185	222.008844444444	220.679944444444	19.5	0.585	1.95	13.455
212.76	0	19	response	171	3	225.838885185185	222.008844444444	220.679944444444	19.5	0.585	1.95	13.455
212.76	0.5	19	feedback	171	3	225.838885185185	222.008844444444	220.679944444444	19.5	0.585	1.95	13.455
220.664	4.01300000000001	20	valuation	419	3	243.592155555556	224.027522222222	209.668392592593	700	27.3	89.6	238.7
224.677	0.76400000000001	20	rating	419	3	243.592155555556	224.027522222222	209.668392592593	700	27.3	89.6	238.7
225.441	0	20	response	419	3	243.592155555556	224.027522222222	209.668392592593	700	27.3	89.6	238.7
225.441	0.5	20	feedback	419	3	243.592155555556	224.027522222222	209.668392592593	700	27.3	89.6	238.7
230.596	4.01400000000001	21	valuation	24	3	237.950762962963	227.837792592593	217.216607407407	400	6	19.2	60
234.61	0.937999999999988	21	rating	24	3	237.950762962963	227.837792592593	217.216607407407	400	6	19.2	60
235.548	0	21	response	24	3	237.950762962963	227.837792592593	217.216607407407	400	6	19.2	60
235.548	0.5	21	feedback	24	3	237.950762962963	227.837792592593	217.216607407407	400	6	19.2	60
241.733	4.005	22	valuation	130	2	239.940644444444	234.521937037037	224.427055555556	120	6	21.6	72
245.738	0.716000000000008	22	rating	130	2	239.940644444444	234.521937037037	224.427055555556	120	6	21.6	72
246.454	0	22	response	130	2	239.940644444444	234.521937037037	224.427055555556	120	6	21.6	72
246.454	0.5	22	feedback	130	2	239.940644444444	234.521937037037	224.427055555556	120	6	21.6	72
254.514	4.005	23	valuation	443	3	240.5417	201.828692592593	173.333833333333	40	2.2	9.2	14.4
258.519	1.77800000000002	23	rating	443	3	240.5417	201.828692592593	173.333833333333	40	2.2	9.2	14.4
260.297	0	23	response	443	3	240.5417	201.828692592593	173.333833333333	40	2.2	9.2	14.4
260.297	0.5	23	feedback	443	3	240.5417	201.828692592593	173.333833333333	40	2.2	9.2	14.4
263.874	4.00399999999996	24	valuation	383	1	228.460337037037	202.349562962963	171.075537037037	45	4.995	3.6	9.18
267.878	0.598000000000013	24	rating	383	1	228.460337037037	202.349562962963	171.075537037037	45	4.995	3.6	9.18
268.476	0	24	response	383	1	228.460337037037	202.349562962963	171.075537037037	45	4.995	3.6	9.18
268.476	0.5	24	feedback	383	1	228.460337037037	202.349562962963	171.075537037037	45	4.995	3.6	9.18
273.388	4.00400000000002	25	valuation	145	4	231.567696296296	210.477440740741	191.054633333333	350	19.95	17.85	45.5
277.392	0.661000000000001	25	rating	145	4	231.567696296296	210.477440740741	191.054633333333	350	19.95	17.85	45.5
278.053	0	25	response	145	4	231.567696296296	210.477440740741	191.054633333333	350	19.95	17.85	45.5
278.053	0.5	25	feedback	145	4	231.567696296296	210.477440740741	191.054633333333	350	19.95	17.85	45.5
284.378	4.00400000000002	26	valuation	334	1	233.865959259259	228.59447037037	210.783918518519	400	5.2	0.8	20.8
288.382	1.08999999999997	26	rating	334	1	233.865959259259	228.59447037037	210.783918518519	400	5.2	0.8	20.8
289.472	0	26	response	334	1	233.865959259259	228.59447037037	210.783918518519	400	5.2	0.8	20.8
289.472	0.5	26	feedback	334	1	233.865959259259	228.59447037037	210.783918518519	400	5.2	0.8	20.8
295.406	4.00400000000002	27	valuation	275	2	241.479677777778	205.121166666667	195.675003703704	455	4.095	0.91	11.2385
299.41	0.811999999999955	27	rating	275	2	241.479677777778	205.121166666667	195.675003703704	455	4.095	0.91	11.2385
300.222	0	27	response	275	2	241.479677777778	205.121166666667	195.675003703704	455	4.095	0.91	11.2385
300.222	0.5	27	feedback	275	2	241.479677777778	205.121166666667	195.675003703704	455	4.095	0.91	11.2385
304.852	4.00400000000002	28	valuation	344	4	213.3786	188.994266666667	172.751907407407	72.4	3.5476	19.06292	38.19824
308.856	0.610000000000014	28	rating	344	4	213.3786	188.994266666667	172.751907407407	72.4	3.5476	19.06292	38.19824
309.466	0	28	response	344	4	213.3786	188.994266666667	172.751907407407	72.4	3.5476	19.06292	38.19824
309.466	0.5	28	feedback	344	4	213.3786	188.994266666667	172.751907407407	72.4	3.5476	19.06292	38.19824
315.271	4.005	29	valuation	17	4	210.764488888889	185.949807407407	160.755022222222	720	38.448	64.8	146.16
319.276	0.865000000000009	29	rating	17	4	210.764488888889	185.949807407407	160.755022222222	720	38.448	64.8	146.16
320.141	0	29	response	17	4	210.764488888889	185.949807407407	160.755022222222	720	38.448	64.8	146.16
320.141	0.5	29	feedback	17	4	210.764488888889	185.949807407407	160.755022222222	720	38.448	64.8	146.16
323.491	4.00600000000003	30	valuation	540	3	223.916451851852	169.149040740741	168.88347037037	300	60	9	3
327.497	1.11699999999996	30	rating	540	3	223.916451851852	169.149040740741	168.88347037037	300	60	9	3
328.614	0	30	response	540	3	223.916451851852	169.149040740741	168.88347037037	300	60	9	3
328.614	0.5	30	feedback	540	3	223.916451851852	169.149040740741	168.88347037037	300	60	9	3
331.435	4.00299999999999	31	valuation	430	1	215.593651851852	222.744125925926	185.890007407407	650	6.5	1.3	10.205
335.438	0.713999999999999	31	rating	430	1	215.593651851852	222.744125925926	185.890007407407	650	6.5	1.3	10.205
336.152	0	31	response	430	1	215.593651851852	222.744125925926	185.890007407407	650	6.5	1.3	10.205
336.152	0.5	31	feedback	430	1	215.593651851852	222.744125925926	185.890007407407	650	6.5	1.3	10.205
340.25	4.00400000000002	32	valuation	296	1	227.07772962963	224.495862962963	211.274185185185	35	1.463	7.308	24.843
344.254	1.33299999999997	32	rating	296	1	227.07772962963	224.495862962963	211.274185185185	35	1.463	7.308	24.843
345.587	0	32	response	296	1	227.07772962963	224.495862962963	211.274185185185	35	1.463	7.308	24.843
345.587	0.5	32	feedback	296	1	227.07772962963	224.495862962963	211.274185185185	35	1.463	7.308	24.843
349.558	4.01499999999999	33	valuation	106	4	195.295644444444	163.75657037037	154.613781481481	750	40.5	115.5	386.25
353.573	0.66900000000004	33	rating	106	4	195.295644444444	163.75657037037	154.613781481481	750	40.5	115.5	386.25
354.242	0	33	response	106	4	195.295644444444	163.75657037037	154.613781481481	750	40.5	115.5	386.25
354.242	0.5	33	feedback	106	4	195.295644444444	163.75657037037	154.613781481481	750	40.5	115.5	386.25
360.696	4.005	34	valuation	165	3	225.317955555556	214.999707407407	210.162355555556	40	2.24	11	22.92
364.701	0.996999999999957	34	rating	165	3	225.317955555556	214.999707407407	210.162355555556	40	2.24	11	22.92
365.698	0	34	response	165	3	225.317955555556	214.999707407407	210.162355555556	40	2.24	11	22.92
365.698	0.5	34	feedback	165	3	225.317955555556	214.999707407407	210.162355555556	40	2.24	11	22.92
370.983	4.00400000000002	35	valuation	488	4	240.102651851852	228.914944444444	222.975966666667	80	2.88	17.12	42
374.987	0.62299999999999	35	rating	488	4	240.102651851852	228.914944444444	222.975966666667	80	2.88	17.12	42
375.61	0	35	response	488	4	240.102651851852	228.914944444444	222.975966666667	80	2.88	17.12	42
375.61	0.5	35	feedback	488	4	240.102651851852	228.914944444444	222.975966666667	80	2.88	17.12	42
382.196	4.00399999999996	36	valuation	406	4	223.619848148148	217.093585185185	201.357018518519	325	30.615	18.135	21.97
386.2	0.627999999999986	36	rating	406	4	223.619848148148	217.093585185185	201.357018518519	325	30.615	18.135	21.97
386.828	0	36	response	406	4	223.619848148148	217.093585185185	201.357018518519	325	30.615	18.135	21.97
386.828	0.5	36	feedback	406	4	223.619848148148	217.093585185185	201.357018518519	325	30.615	18.135	21.97
394.595	4.00299999999999	37	valuation	357	4	221.648362962963	206.562155555556	200.983548148148	1080	32.4	162	410.4
398.598	0.766999999999996	37	rating	357	4	221.648362962963	206.562155555556	200.983548148148	1080	32.4	162	410.4
399.365	0	37	response	357	4	221.648362962963	206.562155555556	200.983548148148	1080	32.4	162	410.4
399.365	0.5	37	feedback	357	4	221.648362962963	206.562155555556	200.983548148148	1080	32.4	162	410.4
403.735	4.005	38	valuation	286	2	225.570633333333	211.376503703704	200.974655555556	100	6.6	29.5	58.5
407.74	0.949999999999989	38	rating	286	2	225.570633333333	211.376503703704	200.974655555556	100	6.6	29.5	58.5
408.69	0	38	response	286	2	225.570633333333	211.376503703704	200.974655555556	100	6.6	29.5	58.5
408.69	0.5	38	feedback	286	2	225.570633333333	211.376503703704	200.974655555556	100	6.6	29.5	58.5
412.145	4.00400000000002	39	valuation	306	3	234.096081481481	192.577996296296	157.746648148148	230	4.6	15.433	27.83
416.149	0.749000000000024	39	rating	306	3	234.096081481481	192.577996296296	157.746648148148	230	4.6	15.433	27.83
416.898	0	39	response	306	3	234.096081481481	192.577996296296	157.746648148148	230	4.6	15.433	27.83
416.898	0.5	39	feedback	306	3	234.096081481481	192.577996296296	157.746648148148	230	4.6	15.433	27.83
424.02	4.00400000000002	40	valuation	126	4	215.7277	192.312051851852	168.230407407407	590	37.76	133.281	234.702
428.024	0.559000000000026	40	rating	126	4	215.7277	192.312051851852	168.230407407407	590	37.76	133.281	234.702
428.583	0	40	response	126	4	215.7277	192.312051851852	168.230407407407	590	37.76	133.281	234.702
428.583	0.5	40	feedback	126	4	215.7277	192.312051851852	168.230407407407	590	37.76	133.281	234.702
434.287	4.017	41	valuation	314	3	233.865662962963	212.069914814815	199.556859259259	320	20.48	5.184	33.824
438.304	1.16800000000001	41	rating	314	3	233.865662962963	212.069914814815	199.556859259259	320	20.48	5.184	33.824
439.472	0	41	response	314	3	233.865662962963	212.069914814815	199.556859259259	320	20.48	5.184	33.824
439.472	0.5	41	feedback	314	3	233.865662962963	212.069914814815	199.556859259259	320	20.48	5.184	33.824
443.972	4.00600000000003	42	valuation	487	2	223.586411111111	217.629103703704	198.619337037037	110	8.8	8.14	45.65
447.978	0.889999999999986	42	rating	487	2	223.586411111111	217.629103703704	198.619337037037	110	8.8	8.14	45.65
448.868	0	42	response	487	2	223.586411111111	217.629103703704	198.619337037037	110	8.8	8.14	45.65
448.868	0.5	42	feedback	487	2	223.586411111111	217.629103703704	198.619337037037	110	8.8	8.14	45.65
451.803	4.00700000000001	43	valuation	522	1	211.285055555556	209.573311111111	184.721655555556	320	4.48	0.48	7.2
455.81	0.802999999999997	43	rating	522	1	211.285055555556	209.573311111111	184.721655555556	320	4.48	0.48	7.2
456.613	0	43	response	522	1	211.285055555556	209.573311111111	184.721655555556	320	4.48	0.48	7.2
456.613	0.5	43	feedback	522	1	211.285055555556	209.573311111111	184.721655555556	320	4.48	0.48	7.2
462.15	4.00300000000004	44	valuation	48	3	225.469518518518	207.606522222222	178.779862962963	320	25.088	36.992	119.392
466.153	0.711999999999989	44	rating	48	3	225.469518518518	207.606522222222	178.779862962963	320	25.088	36.992	119.392
466.865	0	44	response	48	3	225.469518518518	207.606522222222	178.779862962963	320	25.088	36.992	119.392
466.865	0.5	44	feedback	48	3	225.469518518518	207.606522222222	178.779862962963	320	25.088	36.992	119.392
474.379	4.005	45	valuation	433	1	240.476533333333	216.10922962963	201.709562962963	1200	16.8	2.4	55.2
478.384	0.685000000000002	45	rating	433	1	240.476533333333	216.10922962963	201.709562962963	1200	16.8	2.4	55.2
479.069	0	45	response	433	1	240.476533333333	216.10922962963	201.709562962963	1200	16.8	2.4	55.2
479.069	0.5	45	feedback	433	1	240.476533333333	216.10922962963	201.709562962963	1200	16.8	2.4	55.2
483.32	4.00299999999999	46	valuation	176	3	235.462822222222	218.954396296296	216.680240740741	250	42.5	80.325	0.55
487.323	0.687000000000012	46	rating	176	3	235.462822222222	218.954396296296	216.680240740741	250	42.5	80.325	0.55
488.01	0	46	response	176	3	235.462822222222	218.954396296296	216.680240740741	250	42.5	80.325	0.55
488.01	0.5	46	feedback	176	3	235.462822222222	218.954396296296	216.680240740741	250	42.5	80.325	0.55
495.371	4.00400000000002	47	valuation	454	2	219.902148148148	220.933455555556	200.841318518518	450	1.8	0.9	55.8
499.375	1.61500000000001	47	rating	454	2	219.902148148148	220.933455555556	200.841318518518	450	1.8	0.9	55.8
500.99	0	47	response	454	2	219.902148148148	220.933455555556	200.841318518518	450	1.8	0.9	55.8
500.99	0.5	47	feedback	454	2	219.902148148148	220.933455555556	200.841318518518	450	1.8	0.9	55.8
