onset	duration	trial_id	trial_type	image_id	rating_value	red	green	blue	gram	protein	fat	carb
10.031	4.004	1	valuation	64	1	236.109440740741	234.422496296296	216.617411111111	5	0.05	4.16	0.03
14.035	0.683999999999999	1	rating	64	1	236.109440740741	234.422496296296	216.617411111111	5	0.05	4.16	0.03
14.719	0	1	response	64	1	236.109440740741	234.422496296296	216.617411111111	5	0.05	4.16	0.03
14.719	0.5	1	feedback	64	1	236.109440740741	234.422496296296	216.617411111111	5	0.05	4.16	0.03
22.606	4.004	2	valuation	338	3	221.165081481481	207.295811111111	204.795507407407	120	4.32	2.52	89.28
26.61	0.501999999999999	2	rating	338	3	221.165081481481	207.295811111111	204.795507407407	120	4.32	2.52	89.28
27.112	0	2	response	338	3	221.165081481481	207.295811111111	204.795507407407	120	4.32	2.52	89.28
27.112	0.5	2	feedback	338	3	221.165081481481	207.295811111111	204.795507407407	120	4.32	2.52	89.28
32.148	4.005	3	valuation	171	3	225.838885185185	222.008844444444	220.679944444444	19.5	0.585	1.95	13.455
36.153	0.538000000000004	3	rating	171	3	225.838885185185	222.008844444444	220.679944444444	19.5	0.585	1.95	13.455
36.691	0	3	response	171	3	225.838885185185	222.008844444444	220.679944444444	19.5	0.585	1.95	13.455
36.691	0.5	3	feedback	171	3	225.838885185185	222.008844444444	220.679944444444	19.5	0.585	1.95	13.455
41.248	4.004	4	valuation	155	2	237.518407407407	227.407314814815	210.321096296296	25	1.95	5.5	15.75
45.252	0.580999999999996	4	rating	155	2	237.518407407407	227.407314814815	210.321096296296	25	1.95	5.5	15.75
45.833	0	4	response	155	2	237.518407407407	227.407314814815	210.321096296296	25	1.95	5.5	15.75
45.833	0.5	4	feedback	155	2	237.518407407407	227.407314814815	210.321096296296	25	1.95	5.5	15.75
52.299	4.005	5	valuation	364	1	224.224622222222	230.670088888889	200.154666666667	80	1.36	0.08	3.76
56.304	0.547999999999995	5	rating	364	1	224.224622222222	230.670088888889	200.154666666667	80	1.36	0.08	3.76
56.852	0	5	response	364	1	224.224622222222	230.670088888889	200.154666666667	80	1.36	0.08	3.76
56.852	0.5	5	feedback	364	1	224.224622222222	230.670088888889	200.154666666667	80	1.36	0.08	3.76
59.536	4.004	6	valuation	99	3	228.399018518518	221.835125925926	211.244525925926	500	29.5	105	260
63.54	0.591000000000001	6	rating	99	3	228.399018518518	221.835125925926	211.244525925926	500	29.5	105	260
64.131	0	6	response	99	3	228.399018518518	221.835125925926	211.244525925926	500	29.5	105	260
64.131	0.5	6	feedback	99	3	228.399018518518	221.835125925926	211.244525925926	500	29.5	105	260
68.119	4.005	7	valuation	4	3	241.6334	235.246888888889	224.08042962963	19	1.178	4.94	11.97
72.124	0.597999999999999	7	rating	4	3	241.6334	235.246888888889	224.08042962963	19	1.178	4.94	11.97
72.722	0	7	response	4	3	241.6334	235.246888888889	224.08042962963	19	1.178	4.94	11.97
72.722	0.5	7	feedback	4	3	241.6334	235.246888888889	224.08042962963	19	1.178	4.94	11.97
75.919	4.004	8	valuation	316	4	229.776314814815	226.610340740741	214.930022222222	400	15.6	16.4	44
79.923	0.497	8	rating	316	4	229.776314814815	226.610340740741	214.930022222222	400	15.6	16.4	44
80.42	0	8	response	316	4	229.776314814815	226.610340740741	214.930022222222	400	15.6	16.4	44
80.42	0.5	8	feedback	316	4	229.776314814815	226.610340740741	214.930022222222	400	15.6	16.4	44
87.154	4.02000000000001	9	valuation	29	2	214.292388888889	199.70152962963	173.978244444444	500	32.05	84.25	212.6
91.174	0.759999999999991	9	rating	29	2	214.292388888889	199.70152962963	173.978244444444	500	32.05	84.25	212.6
91.934	0	9	response	29	2	214.292388888889	199.70152962963	173.978244444444	500	32.05	84.25	212.6
91.934	0.5	9	feedback	29	2	214.292388888889	199.70152962963	173.978244444444	500	32.05	84.25	212.6
97.493	4.00500000000001	10	valuation	72	4	225.051766666667	210.952637037037	195.053596296296	243	23.0121	17.01	43.011
101.498	0.696999999999989	10	rating	72	4	225.051766666667	210.952637037037	195.053596296296	243	23.0121	17.01	43.011
102.195	0	10	response	72	4	225.051766666667	210.952637037037	195.053596296296	243	23.0121	17.01	43.011
102.195	0.5	10	feedback	72	4	225.051766666667	210.952637037037	195.053596296296	243	23.0121	17.01	43.011
109.054	4.004	11	valuation	326	4	231.977955555556	210.425733333333	187.739140740741	137.5	12.265	13.15875	36.06625
113.058	0.825999999999993	11	rating	326	4	231.977955555556	210.425733333333	187.739140740741	137.5	12.265	13.15875	36.06625
113.884	0	11	response	326	4	231.977955555556	210.425733333333	187.739140740741	137.5	12.265	13.15875	36.06625
113.884	0.5	11	feedback	326	4	231.977955555556	210.425733333333	187.739140740741	137.5	12.265	13.15875	36.06625
121.926	4.004	12	valuation	160	2	225.912862962963	218.56677037037	216.687185185185	50	4.2	10.75	32.4
125.93	0.585999999999999	12	rating	160	2	225.912862962963	218.56677037037	216.687185185185	50	4.2	10.75	32.4
126.516	0	12	response	160	2	225.912862962963	218.56677037037	216.687185185185	50	4.2	10.75	32.4
126.516	0.5	12	feedback	160	2	225.912862962963	218.56677037037	216.687185185185	50	4.2	10.75	32.4
129.471	4.00299999999999	13	valuation	154	3	230.843148148148	215.923281481481	204.736803703704	20	0.68	0.4	15.96
133.474	0.525000000000006	13	rating	154	3	230.843148148148	215.923281481481	204.736803703704	20	0.68	0.4	15.96
133.999	0	13	response	154	3	230.843148148148	215.923281481481	204.736803703704	20	0.68	0.4	15.96
133.999	0.5	13	feedback	154	3	230.843148148148	215.923281481481	204.736803703704	20	0.68	0.4	15.96
138.892	4.011	14	valuation	374	3	229.180462962963	210.759655555556	188.154422222222	65	4.03	8.775	29.77
142.903	0.52200000000002	14	rating	374	3	229.180462962963	210.759655555556	188.154422222222	65	4.03	8.775	29.77
143.425	0	14	response	374	3	229.180462962963	210.759655555556	188.154422222222	65	4.03	8.775	29.77
143.425	0.5	14	feedback	374	3	229.180462962963	210.759655555556	188.154422222222	65	4.03	8.775	29.77
151.067	4.00399999999999	15	valuation	175	4	245.393781481482	241.954911111111	226.525148148148	150	25.5	48.75	1.5
155.071	0.86099999999999	15	rating	175	4	245.393781481482	241.954911111111	226.525148148148	150	25.5	48.75	1.5
155.932	0	15	response	175	4	245.393781481482	241.954911111111	226.525148148148	150	25.5	48.75	1.5
155.932	0.5	15	feedback	175	4	245.393781481482	241.954911111111	226.525148148148	150	25.5	48.75	1.5
161.215	4.00399999999999	16	valuation	474	2	239.237377777778	219.415959259259	196.508911111111	105	5.7015	34.3035	44.8035
165.219	0.532000000000011	16	rating	474	2	239.237377777778	219.415959259259	196.508911111111	105	5.7015	34.3035	44.8035
165.751	0	16	response	474	2	239.237377777778	219.415959259259	196.508911111111	105	5.7015	34.3035	44.8035
165.751	0.5	16	feedback	474	2	239.237377777778	219.415959259259	196.508911111111	105	5.7015	34.3035	44.8035
168.295	4.00400000000002	17	valuation	62	1	231.827648148148	219.497414814815	207.432437037037	70	6.195	2.1	36.33
172.299	0.550999999999988	17	rating	62	1	231.827648148148	219.497414814815	207.432437037037	70	6.195	2.1	36.33
172.85	0	17	response	62	1	231.827648148148	219.497414814815	207.432437037037	70	6.195	2.1	36.33
172.85	0.5	17	feedback	62	1	231.827648148148	219.497414814815	207.432437037037	70	6.195	2.1	36.33
180.224	4.00500000000002	18	valuation	397	2	205.286366666667	197.069281481481	197.402355555556	200	1.4	0.6	31.2
184.229	0.534999999999997	18	rating	397	2	205.286366666667	197.069281481481	197.402355555556	200	1.4	0.6	31.2
184.764	0	18	response	397	2	205.286366666667	197.069281481481	197.402355555556	200	1.4	0.6	31.2
184.764	0.5	18	feedback	397	2	205.286366666667	197.069281481481	197.402355555556	200	1.4	0.6	31.2
189.134	4.00400000000002	19	valuation	343	2	237.573185185185	218.0677	200.734255555556	840	110.04	94.08	5.04
193.138	0.806999999999988	19	rating	343	2	237.573185185185	218.0677	200.734255555556	840	110.04	94.08	5.04
193.945	0	19	response	343	2	237.573185185185	218.0677	200.734255555556	840	110.04	94.08	5.04
193.945	0.5	19	feedback	343	2	237.573185185185	218.0677	200.734255555556	840	110.04	94.08	5.04
198.183	4.00400000000002	20	valuation	266	1	236.431551851852	237.5085	229.194196296296	105	0.945	0.315	8.925
202.187	0.661999999999978	20	rating	266	1	236.431551851852	237.5085	229.194196296296	105	0.945	0.315	8.925
202.849	0	20	response	266	1	236.431551851852	237.5085	229.194196296296	105	0.945	0.315	8.925
202.849	0.5	20	feedback	266	1	236.431551851852	237.5085	229.194196296296	105	0.945	0.315	8.925
209.97	4.00399999999999	21	valuation	231	2	226.702340740741	202.730481481481	190.344407407407	600	1.86	2.4	68.4
213.974	0.52000000000001	21	rating	231	2	226.702340740741	202.730481481481	190.344407407407	600	1.86	2.4	68.4
214.494	0	21	response	231	2	226.702340740741	202.730481481481	190.344407407407	600	1.86	2.4	68.4
214.494	0.5	21	feedback	231	2	226.702340740741	202.730481481481	190.344407407407	600	1.86	2.4	68.4
223.043	4.00799999999998	22	valuation	555	4	232.44067037037	208.196603703704	175.47767037037	500	130.5	46.5	32.5
227.051	0.630000000000024	22	rating	555	4	232.44067037037	208.196603703704	175.47767037037	500	130.5	46.5	32.5
227.681	0	22	response	555	4	232.44067037037	208.196603703704	175.47767037037	500	130.5	46.5	32.5
227.681	0.5	22	feedback	555	4	232.44067037037	208.196603703704	175.47767037037	500	130.5	46.5	32.5
233.359	4.006	23	valuation	426	2	223.031248148148	199.428640740741	181.220877777778	900	73.8	10.8	439.2
237.365	0.508999999999986	23	rating	426	2	223.031248148148	199.428640740741	181.220877777778	900	73.8	10.8	439.2
237.874	0	23	response	426	2	223.031248148148	199.428640740741	181.220877777778	900	73.8	10.8	439.2
237.874	0.5	23	feedback	426	2	223.031248148148	199.428640740741	181.220877777778	900	73.8	10.8	439.2
242.504	4.00400000000002	24	valuation	323	4	228.088137037037	220.723218518519	203.94212962963	377	54.0995	22.0168	19.4909
246.508	0.536999999999978	24	rating	323	4	228.088137037037	220.723218518519	203.94212962963	377	54.0995	22.0168	19.4909
247.045	0	24	response	323	4	228.088137037037	220.723218518519	203.94212962963	377	54.0995	22.0168	19.4909
247.045	0.5	24	feedback	323	4	228.088137037037	220.723218518519	203.94212962963	377	54.0995	22.0168	19.4909
254.804	4.00800000000001	25	valuation	137	3	235.596192592593	223.724274074074	213.428074074074	75	4.65	15.525	36.75
258.812	0.462999999999965	25	rating	137	3	235.596192592593	223.724274074074	213.428074074074	75	4.65	15.525	36.75
259.275	0	25	response	137	3	235.596192592593	223.724274074074	213.428074074074	75	4.65	15.525	36.75
259.275	0.5	25	feedback	137	3	235.596192592593	223.724274074074	213.428074074074	75	4.65	15.525	36.75
264.034	4.00400000000002	26	valuation	157	3	198.883511111111	170.1025	123.753666666667	100	6.3	0.1	77.4
268.038	0.634999999999991	26	rating	157	3	198.883511111111	170.1025	123.753666666667	100	6.3	0.1	77.4
268.673	0	26	response	157	3	198.883511111111	170.1025	123.753666666667	100	6.3	0.1	77.4
268.673	0.5	26	feedback	157	3	198.883511111111	170.1025	123.753666666667	100	6.3	0.1	77.4
274.858	4.00900000000001	27	valuation	206	2	234.499233333333	210.575355555556	207.224118518518	100	1.2	0.3	4.6
278.867	0.461999999999989	27	rating	206	2	234.499233333333	210.575355555556	207.224118518518	100	1.2	0.3	4.6
279.329	0	27	response	206	2	234.499233333333	210.575355555556	207.224118518518	100	1.2	0.3	4.6
279.329	0.5	27	feedback	206	2	234.499233333333	210.575355555556	207.224118518518	100	1.2	0.3	4.6
283.181	4.00400000000002	28	valuation	320	3	241.674966666667	228.898551851852	208.403837037037	125	3.5	19	22.25
287.185	0.505999999999972	28	rating	320	3	241.674966666667	228.898551851852	208.403837037037	125	3.5	19	22.25
287.691	0	28	response	320	3	241.674966666667	228.898551851852	208.403837037037	125	3.5	19	22.25
287.691	0.5	28	feedback	320	3	241.674966666667	228.898551851852	208.403837037037	125	3.5	19	22.25
290.757	4.00400000000002	29	valuation	547	3	245.712811111111	209.884796296296	186.342037037037	112.5	24.1875	22.5	57.9375
294.761	0.546999999999969	29	rating	547	3	245.712811111111	209.884796296296	186.342037037037	112.5	24.1875	22.5	57.9375
295.308	0	29	response	547	3	245.712811111111	209.884796296296	186.342037037037	112.5	24.1875	22.5	57.9375
295.308	0.5	29	feedback	547	3	245.712811111111	209.884796296296	186.342037037037	112.5	24.1875	22.5	57.9375
301.389	4.005	30	valuation	10	2	235.360514814815	227.360366666667	213.76962962963	250	8.35	16.825	40.125
305.394	0.522999999999968	30	rating	10	2	235.360514814815	227.360366666667	213.76962962963	250	8.35	16.825	40.125
305.917	0	30	response	10	2	235.360514814815	227.360366666667	213.76962962963	250	8.35	16.825	40.125
305.917	0.5	30	feedback	10	2	235.360514814815	227.360366666667	213.76962962963	250	8.35	16.825	40.125
312.911	4.012	31	valuation	214	3	217.923725925926	202.65282962963	198.649962962963	125	1.25	0.625	7.5
316.923	0.646000000000015	31	rating	214	3	217.923725925926	202.65282962963	198.649962962963	125	1.25	0.625	7.5
317.569	0	31	response	214	3	217.923725925926	202.65282962963	198.649962962963	125	1.25	0.625	7.5
317.569	0.5	31	feedback	214	3	217.923725925926	202.65282962963	198.649962962963	125	1.25	0.625	7.5
323.379	4.01399999999995	32	valuation	86	4	236.011966666667	220.893862962963	200.992777777778	286	30.316	35.8072	50.9938
327.393	0.545000000000016	32	rating	86	4	236.011966666667	220.893862962963	200.992777777778	286	30.316	35.8072	50.9938
327.938	0	32	response	86	4	236.011966666667	220.893862962963	200.992777777778	286	30.316	35.8072	50.9938
327.938	0.5	32	feedback	86	4	236.011966666667	220.893862962963	200.992777777778	286	30.316	35.8072	50.9938
336.221	4.00799999999998	33	valuation	230	2	242.721044444444	217.309944444444	187.067733333333	1360	9.792	1.904	90.032
340.229	0.586000000000013	33	rating	230	2	242.721044444444	217.309944444444	187.067733333333	1360	9.792	1.904	90.032
340.815	0	33	response	230	2	242.721044444444	217.309944444444	187.067733333333	1360	9.792	1.904	90.032
340.815	0.5	33	feedback	230	2	242.721044444444	217.309944444444	187.067733333333	1360	9.792	1.904	90.032
344.309	4.005	34	valuation	488	4	240.102651851852	228.914944444444	222.975966666667	80	2.88	17.12	42
348.314	0.555999999999983	34	rating	488	4	240.102651851852	228.914944444444	222.975966666667	80	2.88	17.12	42
348.87	0	34	response	488	4	240.102651851852	228.914944444444	222.975966666667	80	2.88	17.12	42
348.87	0.5	34	feedback	488	4	240.102651851852	228.914944444444	222.975966666667	80	2.88	17.12	42
357.047	4.00899999999996	35	valuation	441	2	195.492359259259	183.08457037037	171.820788888889	55	3.795	14.85	20.02
361.056	0.53000000000003	35	rating	441	2	195.492359259259	183.08457037037	171.820788888889	55	3.795	14.85	20.02
361.586	0	35	response	441	2	195.492359259259	183.08457037037	171.820788888889	55	3.795	14.85	20.02
361.586	0.5	35	feedback	441	2	195.492359259259	183.08457037037	171.820788888889	55	3.795	14.85	20.02
365.302	4.00399999999996	36	valuation	533	4	243.899425925926	223.493911111111	174.903544444444	20	1	6.4	7.4
369.306	0.515000000000043	36	rating	533	4	243.899425925926	223.493911111111	174.903544444444	20	1	6.4	7.4
369.821	0	36	response	533	4	243.899425925926	223.493911111111	174.903544444444	20	1	6.4	7.4
369.821	0.5	36	feedback	533	4	243.899425925926	223.493911111111	174.903544444444	20	1	6.4	7.4
376.148	4.00299999999999	37	valuation	395	1	207.875462962963	220.707348148148	194.600777777778	1100	23.76	3.19	19.14
380.151	0.567999999999984	37	rating	395	1	207.875462962963	220.707348148148	194.600777777778	1100	23.76	3.19	19.14
380.719	0	37	response	395	1	207.875462962963	220.707348148148	194.600777777778	1100	23.76	3.19	19.14
380.719	0.5	37	feedback	395	1	207.875462962963	220.707348148148	194.600777777778	1100	23.76	3.19	19.14
387.317	4.00999999999999	38	valuation	387	4	227.632918518519	210.873792592593	202.3937	3500	549.5	1085	0
391.327	0.947000000000003	38	rating	387	4	227.632918518519	210.873792592593	202.3937	3500	549.5	1085	0
392.274	0	38	response	387	4	227.632918518519	210.873792592593	202.3937	3500	549.5	1085	0
392.274	0.5	38	feedback	387	4	227.632918518519	210.873792592593	202.3937	3500	549.5	1085	0
399.515	4.00400000000002	39	valuation	141	4	234.212044444444	208.694414814815	187.429848148148	350	19.95	17.85	45.5
403.519	0.507999999999981	39	rating	141	4	234.212044444444	208.694414814815	187.429848148148	350	19.95	17.85	45.5
404.027	0	39	response	141	4	234.212044444444	208.694414814815	187.429848148148	350	19.95	17.85	45.5
404.027	0.5	39	feedback	141	4	234.212044444444	208.694414814815	187.429848148148	350	19.95	17.85	45.5
412.441	4.00800000000004	40	valuation	37	3	224.732359259259	204.957048148148	188.700111111111	250	13.475	9.925	46.775
416.449	0.589999999999975	40	rating	37	3	224.732359259259	204.957048148148	188.700111111111	250	13.475	9.925	46.775
417.039	0	40	response	37	3	224.732359259259	204.957048148148	188.700111111111	250	13.475	9.925	46.775
417.039	0.5	40	feedback	37	3	224.732359259259	204.957048148148	188.700111111111	250	13.475	9.925	46.775
421.16	4.00399999999996	41	valuation	33	2	232.182151851852	225.755218518519	210.883362962963	250	8.35	16.825	40.125
425.164	0.593999999999994	41	rating	33	2	232.182151851852	225.755218518519	210.883362962963	250	8.35	16.825	40.125
425.758	0	41	response	33	2	232.182151851852	225.755218518519	210.883362962963	250	8.35	16.825	40.125
425.758	0.5	41	feedback	33	2	232.182151851852	225.755218518519	210.883362962963	250	8.35	16.825	40.125
430.922	4.005	42	valuation	427	1	245.42262962963	227.004585185185	206.62447037037	15	2.16	9.375	1.59
434.927	0.567999999999984	42	rating	427	1	245.42262962963	227.004585185185	206.62447037037	15	2.16	9.375	1.59
435.495	0	42	response	427	1	245.42262962963	227.004585185185	206.62447037037	15	2.16	9.375	1.59
435.495	0.5	42	feedback	427	1	245.42262962963	227.004585185185	206.62447037037	15	2.16	9.375	1.59
440.944	4.00399999999996	43	valuation	383	1	228.460337037037	202.349562962963	171.075537037037	45	4.995	3.6	9.18
444.948	0.538000000000011	43	rating	383	1	228.460337037037	202.349562962963	171.075537037037	45	4.995	3.6	9.18
445.486	0	43	response	383	1	228.460337037037	202.349562962963	171.075537037037	45	4.995	3.6	9.18
445.486	0.5	43	feedback	383	1	228.460337037037	202.349562962963	171.075537037037	45	4.995	3.6	9.18
448.311	4.00400000000002	44	valuation	161	2	229.495648148148	223.318425925926	216.838081481481	49.8	1.7928	8.3664	31.7226
452.315	0.524000000000001	44	rating	161	2	229.495648148148	223.318425925926	216.838081481481	49.8	1.7928	8.3664	31.7226
452.839	0	44	response	161	2	229.495648148148	223.318425925926	216.838081481481	49.8	1.7928	8.3664	31.7226
452.839	0.5	44	feedback	161	2	229.495648148148	223.318425925926	216.838081481481	49.8	1.7928	8.3664	31.7226
460.354	4.00400000000002	45	valuation	422	4	244.883433333333	225.257766666667	206.887925925926	120	2.88	18.24	30.24
464.358	0.481999999999971	45	rating	422	4	244.883433333333	225.257766666667	206.887925925926	120	2.88	18.24	30.24
464.84	0	45	response	422	4	244.883433333333	225.257766666667	206.887925925926	120	2.88	18.24	30.24
464.84	0.5	45	feedback	422	4	244.883433333333	225.257766666667	206.887925925926	120	2.88	18.24	30.24
468.178	4.00299999999999	46	valuation	227	2	230.656755555556	218.651237037037	207.1778	150	7.5	3.15	43.2
472.181	0.484000000000037	46	rating	227	2	230.656755555556	218.651237037037	207.1778	150	7.5	3.15	43.2
472.665	0	46	response	227	2	230.656755555556	218.651237037037	207.1778	150	7.5	3.15	43.2
472.665	0.5	46	feedback	227	2	230.656755555556	218.651237037037	207.1778	150	7.5	3.15	43.2
478.602	4.00400000000002	47	valuation	146	4	242.953496296296	228.415333333333	203.3177	100	6.8	9.4	34.3
482.606	0.466999999999985	47	rating	146	4	242.953496296296	228.415333333333	203.3177	100	6.8	9.4	34.3
483.073	0	47	response	146	4	242.953496296296	228.415333333333	203.3177	100	6.8	9.4	34.3
483.073	0.5	47	feedback	146	4	242.953496296296	228.415333333333	203.3177	100	6.8	9.4	34.3
