onset	duration	trial_id	trial_type	image_id	rating_value	red	green	blue	gram	protein	fat	carb
10.025	4.005	1	valuation	43	3	245.816162962963	226.076507407407	162.769114814815	20	1.096	7.88	8.12
14.03	0.658000000000001	1	rating	43	3	245.816162962963	226.076507407407	162.769114814815	20	1.096	7.88	8.12
14.688	0	1	response	43	3	245.816162962963	226.076507407407	162.769114814815	20	1.096	7.88	8.12
14.688	0.5	1	feedback	43	3	245.816162962963	226.076507407407	162.769114814815	20	1.096	7.88	8.12
21.552	4.004	2	valuation	170	3	235.570562962963	230.660907407407	228.13822962963	18.8	0.94	6.6928	10.528
25.556	0.992999999999999	2	rating	170	3	235.570562962963	230.660907407407	228.13822962963	18.8	0.94	6.6928	10.528
26.549	0	2	response	170	3	235.570562962963	230.660907407407	228.13822962963	18.8	0.94	6.6928	10.528
26.549	0.5	2	feedback	170	3	235.570562962963	230.660907407407	228.13822962963	18.8	0.94	6.6928	10.528
33.529	4.004	3	valuation	206	4	234.499233333333	210.575355555556	207.224118518518	100	1.2	0.3	4.6
37.533	0.738	3	rating	206	4	234.499233333333	210.575355555556	207.224118518518	100	1.2	0.3	4.6
38.271	0	3	response	206	4	234.499233333333	210.575355555556	207.224118518518	100	1.2	0.3	4.6
38.271	0.5	3	feedback	206	4	234.499233333333	210.575355555556	207.224118518518	100	1.2	0.3	4.6
40.995	4.004	4	valuation	283	4	223.747351851852	218.659118518519	190.168366666667	250	5	58.75	1
44.999	0.610999999999997	4	rating	283	4	223.747351851852	218.659118518519	190.168366666667	250	5	58.75	1
45.61	0	4	response	283	4	223.747351851852	218.659118518519	190.168366666667	250	5	58.75	1
45.61	0.5	4	feedback	283	4	223.747351851852	218.659118518519	190.168366666667	250	5	58.75	1
54.041	4.005	5	valuation	8	2	230.364255555556	218.267518518519	205.17507037037	20	1.8	0.1	15.06
58.046	0.762	5	rating	8	2	230.364255555556	218.267518518519	205.17507037037	20	1.8	0.1	15.06
58.808	0	5	response	8	2	230.364255555556	218.267518518519	205.17507037037	20	1.8	0.1	15.06
58.808	0.5	5	feedback	8	2	230.364255555556	218.267518518519	205.17507037037	20	1.8	0.1	15.06
64.872	4.004	6	valuation	252	1	234.366414814815	236.86237037037	220.153803703704	300	2.4	0.48	3.78
68.876	0.768999999999991	6	rating	252	1	234.366414814815	236.86237037037	220.153803703704	300	2.4	0.48	3.78
69.645	0	6	response	252	1	234.366414814815	236.86237037037	220.153803703704	300	2.4	0.48	3.78
69.645	0.5	6	feedback	252	1	234.366414814815	236.86237037037	220.153803703704	300	2.4	0.48	3.78
75.597	4.00500000000001	7	valuation	331	2	207.089233333333	190.472796296296	165.613433333333	70	4.347	15.19	30.023
79.602	0.980999999999995	7	rating	331	2	207.089233333333	190.472796296296	165.613433333333	70	4.347	15.19	30.023
80.583	0	7	response	331	2	207.089233333333	190.472796296296	165.613433333333	70	4.347	15.19	30.023
80.583	0.5	7	feedback	331	2	207.089233333333	190.472796296296	165.613433333333	70	4.347	15.19	30.023
86.128	4.004	8	valuation	203	4	224.25597037037	210.968914814815	202.841022222222	100	1	0.5	6
90.132	0.522999999999996	8	rating	203	4	224.25597037037	210.968914814815	202.841022222222	100	1	0.5	6
90.655	0	8	response	203	4	224.25597037037	210.968914814815	202.841022222222	100	1	0.5	6
90.655	0.5	8	feedback	203	4	224.25597037037	210.968914814815	202.841022222222	100	1	0.5	6
94.907	4.004	9	valuation	515	2	246.682818518519	241.276377777778	211.615737037037	200	57.4	60	0
98.911	0.576999999999998	9	rating	515	2	246.682818518519	241.276377777778	211.615737037037	200	57.4	60	0
99.488	0	9	response	515	2	246.682818518519	241.276377777778	211.615737037037	200	57.4	60	0
99.488	0.5	9	feedback	515	2	246.682818518519	241.276377777778	211.615737037037	200	57.4	60	0
103.593	4.00399999999999	10	valuation	51	3	226.266981481481	216.113044444444	199.440296296296	500	32.05	84.25	212.6
107.597	0.744	10	rating	51	3	226.266981481481	216.113044444444	199.440296296296	500	32.05	84.25	212.6
108.341	0	10	response	51	3	226.266981481481	216.113044444444	199.440296296296	500	32.05	84.25	212.6
108.341	0.5	10	feedback	51	3	226.266981481481	216.113044444444	199.440296296296	500	32.05	84.25	212.6
112.331	4.00399999999999	11	valuation	322	4	221.623762962963	196.456659259259	165.997151851852	850	130.22	51	29.155
116.335	0.545000000000002	11	rating	322	4	221.623762962963	196.456659259259	165.997151851852	850	130.22	51	29.155
116.88	0	11	response	322	4	221.623762962963	196.456659259259	165.997151851852	850	130.22	51	29.155
116.88	0.5	11	feedback	322	4	221.623762962963	196.456659259259	165.997151851852	850	130.22	51	29.155
121.903	4.00399999999999	12	valuation	343	4	237.573185185185	218.0677	200.734255555556	840	110.04	94.08	5.04
125.907	0.646000000000001	12	rating	343	4	237.573185185185	218.0677	200.734255555556	840	110.04	94.08	5.04
126.553	0	12	response	343	4	237.573185185185	218.0677	200.734255555556	840	110.04	94.08	5.04
126.553	0.5	12	feedback	343	4	237.573185185185	218.0677	200.734255555556	840	110.04	94.08	5.04
130.268	4.00399999999999	13	valuation	387	4	227.632918518519	210.873792592593	202.3937	3500	549.5	1085	0
134.272	0.588000000000022	13	rating	387	4	227.632918518519	210.873792592593	202.3937	3500	549.5	1085	0
134.86	0	13	response	387	4	227.632918518519	210.873792592593	202.3937	3500	549.5	1085	0
134.86	0.5	13	feedback	387	4	227.632918518519	210.873792592593	202.3937	3500	549.5	1085	0
143.139	4.005	14	valuation	184	3	229.436533333333	217.155248148148	204.94587037037	170	11.56	57.12	85.51
147.144	0.745999999999981	14	rating	184	3	229.436533333333	217.155248148148	204.94587037037	170	11.56	57.12	85.51
147.89	0	14	response	184	3	229.436533333333	217.155248148148	204.94587037037	170	11.56	57.12	85.51
147.89	0.5	14	feedback	184	3	229.436533333333	217.155248148148	204.94587037037	170	11.56	57.12	85.51
151.348	4.00399999999999	15	valuation	477	1	223.237314814815	225.169562962963	212.872111111111	350	2.24	0.63	6.37
155.352	0.97399999999999	15	rating	477	1	223.237314814815	225.169562962963	212.872111111111	350	2.24	0.63	6.37
156.326	0	15	response	477	1	223.237314814815	225.169562962963	212.872111111111	350	2.24	0.63	6.37
156.326	0.5	15	feedback	477	1	223.237314814815	225.169562962963	212.872111111111	350	2.24	0.63	6.37
163.696	4.00300000000001	16	valuation	430	1	215.593651851852	222.744125925926	185.890007407407	650	6.5	1.3	10.205
167.699	2.08799999999999	16	rating	430	1	215.593651851852	222.744125925926	185.890007407407	650	6.5	1.3	10.205
169.787	0	16	response	430	1	215.593651851852	222.744125925926	185.890007407407	650	6.5	1.3	10.205
169.787	0.5	16	feedback	430	1	215.593651851852	222.744125925926	185.890007407407	650	6.5	1.3	10.205
174.153	4.00400000000002	17	valuation	431	2	230.700055555556	229.526433333333	218.11687037037	550	7.15	1.1	28.6
178.157	0.769999999999982	17	rating	431	2	230.700055555556	229.526433333333	218.11687037037	550	7.15	1.1	28.6
178.927	0	17	response	431	2	230.700055555556	229.526433333333	218.11687037037	550	7.15	1.1	28.6
178.927	0.5	17	feedback	431	2	230.700055555556	229.526433333333	218.11687037037	550	7.15	1.1	28.6
186.033	4.00800000000001	18	valuation	474	3	239.237377777778	219.415959259259	196.508911111111	105	5.7015	34.3035	44.8035
190.041	0.610000000000014	18	rating	474	3	239.237377777778	219.415959259259	196.508911111111	105	5.7015	34.3035	44.8035
190.651	0	18	response	474	3	239.237377777778	219.415959259259	196.508911111111	105	5.7015	34.3035	44.8035
190.651	0.5	18	feedback	474	3	239.237377777778	219.415959259259	196.508911111111	105	5.7015	34.3035	44.8035
196.973	4.00399999999999	19	valuation	452	4	236.400237037037	207.367988888889	195.907403703704	1800	10.8	3.6	149.04
200.977	0.659999999999997	19	rating	452	4	236.400237037037	207.367988888889	195.907403703704	1800	10.8	3.6	149.04
201.637	0	19	response	452	4	236.400237037037	207.367988888889	195.907403703704	1800	10.8	3.6	149.04
201.637	0.5	19	feedback	452	4	236.400237037037	207.367988888889	195.907403703704	1800	10.8	3.6	149.04
208.092	4.00399999999999	20	valuation	230	4	242.721044444444	217.309944444444	187.067733333333	1360	9.792	1.904	90.032
212.096	0.524000000000001	20	rating	230	4	242.721044444444	217.309944444444	187.067733333333	1360	9.792	1.904	90.032
212.62	0	20	response	230	4	242.721044444444	217.309944444444	187.067733333333	1360	9.792	1.904	90.032
212.62	0.5	20	feedback	230	4	242.721044444444	217.309944444444	187.067733333333	1360	9.792	1.904	90.032
215.682	4.00500000000002	21	valuation	85	4	225.909674074074	206.057666666667	193.122377777778	550	36.025	31.02	116.985
219.687	0.689999999999998	21	rating	85	4	225.909674074074	206.057666666667	193.122377777778	550	36.025	31.02	116.985
220.377	0	21	response	85	4	225.909674074074	206.057666666667	193.122377777778	550	36.025	31.02	116.985
220.377	0.5	21	feedback	85	4	225.909674074074	206.057666666667	193.122377777778	550	36.025	31.02	116.985
228.269	4.00799999999998	22	valuation	495	3	231.2935	207.667585185185	188.174859259259	1120	80.976	12.32	512.96
232.277	0.646000000000015	22	rating	495	3	231.2935	207.667585185185	188.174859259259	1120	80.976	12.32	512.96
232.923	0	22	response	495	3	231.2935	207.667585185185	188.174859259259	1120	80.976	12.32	512.96
232.923	0.5	22	feedback	495	3	231.2935	207.667585185185	188.174859259259	1120	80.976	12.32	512.96
239.528	4.00400000000002	23	valuation	439	2	250.754066666667	242.448981481481	224.900192592593	25	1.84	0.835	11.9225
243.532	0.567999999999984	23	rating	439	2	250.754066666667	242.448981481481	224.900192592593	25	1.84	0.835	11.9225
244.1	0	23	response	439	2	250.754066666667	242.448981481481	224.900192592593	25	1.84	0.835	11.9225
244.1	0.5	23	feedback	439	2	250.754066666667	242.448981481481	224.900192592593	25	1.84	0.835	11.9225
249.916	4.00399999999999	24	valuation	126	4	215.7277	192.312051851852	168.230407407407	590	37.76	133.281	234.702
253.92	0.65100000000001	24	rating	126	4	215.7277	192.312051851852	168.230407407407	590	37.76	133.281	234.702
254.571	0	24	response	126	4	215.7277	192.312051851852	168.230407407407	590	37.76	133.281	234.702
254.571	0.5	24	feedback	126	4	215.7277	192.312051851852	168.230407407407	590	37.76	133.281	234.702
262.604	4.00400000000002	25	valuation	208	2	243.352581481481	230.928885185185	215.165185185185	520	4.16	0.832	20.488
266.608	0.677999999999997	25	rating	208	2	243.352581481481	230.928885185185	215.165185185185	520	4.16	0.832	20.488
267.286	0	25	response	208	2	243.352581481481	230.928885185185	215.165185185185	520	4.16	0.832	20.488
267.286	0.5	25	feedback	208	2	243.352581481481	230.928885185185	215.165185185185	520	4.16	0.832	20.488
275.83	4.00800000000004	26	valuation	475	3	247.170337037037	225.989062962963	195.605840740741	95	2.85	13.3	28.5
279.838	0.611999999999966	26	rating	475	3	247.170337037037	225.989062962963	195.605840740741	95	2.85	13.3	28.5
280.45	0	26	response	475	3	247.170337037037	225.989062962963	195.605840740741	95	2.85	13.3	28.5
280.45	0.5	26	feedback	475	3	247.170337037037	225.989062962963	195.605840740741	95	2.85	13.3	28.5
286.655	4.00400000000002	27	valuation	90	3	232.692596296296	223.939966666667	211.016548148148	360	18	79.2	154.8
290.659	0.692000000000007	27	rating	90	3	232.692596296296	223.939966666667	211.016548148148	360	18	79.2	154.8
291.351	0	27	response	90	3	232.692596296296	223.939966666667	211.016548148148	360	18	79.2	154.8
291.351	0.5	27	feedback	90	3	232.692596296296	223.939966666667	211.016548148148	360	18	79.2	154.8
299.501	4.00400000000002	28	valuation	540	4	223.916451851852	169.149040740741	168.88347037037	300	60	9	3
303.505	0.610000000000014	28	rating	540	4	223.916451851852	169.149040740741	168.88347037037	300	60	9	3
304.115	0	28	response	540	4	223.916451851852	169.149040740741	168.88347037037	300	60	9	3
304.115	0.5	28	feedback	540	4	223.916451851852	169.149040740741	168.88347037037	300	60	9	3
307.321	4.00399999999996	29	valuation	328	4	219.765292592593	196.512414814815	184.031585185185	315	59.6925	18.018	4.473
311.325	0.569999999999993	29	rating	328	4	219.765292592593	196.512414814815	184.031585185185	315	59.6925	18.018	4.473
311.895	0	29	response	328	4	219.765292592593	196.512414814815	184.031585185185	315	59.6925	18.018	4.473
311.895	0.5	29	feedback	328	4	219.765292592593	196.512414814815	184.031585185185	315	59.6925	18.018	4.473
314.452	4.00400000000002	30	valuation	80	3	241.8799	231.539851851852	216.649044444444	120	9.6	13.872	44.76
318.456	0.551999999999964	30	rating	80	3	241.8799	231.539851851852	216.649044444444	120	9.6	13.872	44.76
319.008	0	30	response	80	3	241.8799	231.539851851852	216.649044444444	120	9.6	13.872	44.76
319.008	0.5	30	feedback	80	3	241.8799	231.539851851852	216.649044444444	120	9.6	13.872	44.76
326.637	4.00799999999998	31	valuation	199	3	244.756914814815	225.456751851852	215.303337037037	300	0.78	0.27	10.92
330.645	0.88900000000001	31	rating	199	3	244.756914814815	225.456751851852	215.303337037037	300	0.78	0.27	10.92
331.534	0	31	response	199	3	244.756914814815	225.456751851852	215.303337037037	300	0.78	0.27	10.92
331.534	0.5	31	feedback	199	3	244.756914814815	225.456751851852	215.303337037037	300	0.78	0.27	10.92
336.701	4.00299999999999	32	valuation	492	4	230.247018518519	212.301574074074	191.626448148148	489	13.203	42.054	114.915
340.704	0.572999999999979	32	rating	492	4	230.247018518519	212.301574074074	191.626448148148	489	13.203	42.054	114.915
341.277	0	32	response	492	4	230.247018518519	212.301574074074	191.626448148148	489	13.203	42.054	114.915
341.277	0.5	32	feedback	492	4	230.247018518519	212.301574074074	191.626448148148	489	13.203	42.054	114.915
344.211	4.005	33	valuation	450	1	230.039977777778	202.773103703704	181.145396296296	182	21.7672	112.112	19.1828
348.216	0.701999999999998	33	rating	450	1	230.039977777778	202.773103703704	181.145396296296	182	21.7672	112.112	19.1828
348.918	0	33	response	450	1	230.039977777778	202.773103703704	181.145396296296	182	21.7672	112.112	19.1828
348.918	0.5	33	feedback	450	1	230.039977777778	202.773103703704	181.145396296296	182	21.7672	112.112	19.1828
352.502	4.005	34	valuation	481	3	228.953885185185	223.616744444445	209.732762962963	70	4.13	5.159	20.727
356.507	0.634000000000015	34	rating	481	3	228.953885185185	223.616744444445	209.732762962963	70	4.13	5.159	20.727
357.141	0	34	response	481	3	228.953885185185	223.616744444445	209.732762962963	70	4.13	5.159	20.727
357.141	0.5	34	feedback	481	3	228.953885185185	223.616744444445	209.732762962963	70	4.13	5.159	20.727
362.031	4.00400000000002	35	valuation	107	4	211.284196296296	202.555433333333	200.890696296296	120	6.48	18.48	61.8
366.035	0.536999999999978	35	rating	107	4	211.284196296296	202.555433333333	200.890696296296	120	6.48	18.48	61.8
366.572	0	35	response	107	4	211.284196296296	202.555433333333	200.890696296296	120	6.48	18.48	61.8
366.572	0.5	35	feedback	107	4	211.284196296296	202.555433333333	200.890696296296	120	6.48	18.48	61.8
369.918	4.00400000000002	36	valuation	69	3	231.089803703704	215.682885185185	191.383751851852	200	19.56	16.54	58.26
373.922	0.639999999999986	36	rating	69	3	231.089803703704	215.682885185185	191.383751851852	200	19.56	16.54	58.26
374.562	0	36	response	69	3	231.089803703704	215.682885185185	191.383751851852	200	19.56	16.54	58.26
374.562	0.5	36	feedback	69	3	231.089803703704	215.682885185185	191.383751851852	200	19.56	16.54	58.26
382.059	4.00699999999995	37	valuation	390	1	244.547496296296	242.352418518518	242.791881481481	150	0.15	0	3.9
386.066	0.65300000000002	37	rating	390	1	244.547496296296	242.352418518518	242.791881481481	150	0.15	0	3.9
386.719	0	37	response	390	1	244.547496296296	242.352418518518	242.791881481481	150	0.15	0	3.9
386.719	0.5	37	feedback	390	1	244.547496296296	242.352418518518	242.791881481481	150	0.15	0	3.9
389.52	4.005	38	valuation	312	4	237.817114814815	229.681992592593	220.793374074074	235	31.114	3.4075	9.4
393.525	0.55400000000003	38	rating	312	4	237.817114814815	229.681992592593	220.793374074074	235	31.114	3.4075	9.4
394.079	0	38	response	312	4	237.817114814815	229.681992592593	220.793374074074	235	31.114	3.4075	9.4
394.079	0.5	38	feedback	312	4	237.817114814815	229.681992592593	220.793374074074	235	31.114	3.4075	9.4
399.491	4.00400000000002	39	valuation	16	4	231.443377777778	213.845492592593	198.130418518519	800	62.88	160	360
403.495	0.754999999999995	39	rating	16	4	231.443377777778	213.845492592593	198.130418518519	800	62.88	160	360
404.25	0	39	response	16	4	231.443377777778	213.845492592593	198.130418518519	800	62.88	160	360
404.25	0.5	39	feedback	16	4	231.443377777778	213.845492592593	198.130418518519	800	62.88	160	360
409.925	4.005	40	valuation	400	4	229.885137037037	211.631592592593	195.687888888889	160	8	24	64
413.93	0.627999999999986	40	rating	400	4	229.885137037037	211.631592592593	195.687888888889	160	8	24	64
414.558	0	40	response	400	4	229.885137037037	211.631592592593	195.687888888889	160	8	24	64
414.558	0.5	40	feedback	400	4	229.885137037037	211.631592592593	195.687888888889	160	8	24	64
421.273	4.00399999999996	41	valuation	329	4	251.147081481481	209.536566666667	191.461725925926	50	9.5	6.5	0
425.277	0.920999999999992	41	rating	329	4	251.147081481481	209.536566666667	191.461725925926	50	9.5	6.5	0
426.198	0	41	response	329	4	251.147081481481	209.536566666667	191.461725925926	50	9.5	6.5	0
426.198	0.5	41	feedback	329	4	251.147081481481	209.536566666667	191.461725925926	50	9.5	6.5	0
430.825	4.005	42	valuation	41	4	206.442281481481	198.14667037037	185.634414814815	50	3.91	11.5	21
434.83	0.509999999999991	42	rating	41	4	206.442281481481	198.14667037037	185.634414814815	50	3.91	11.5	21
435.34	0	42	response	41	4	206.442281481481	198.14667037037	185.634414814815	50	3.91	11.5	21
435.34	0.5	42	feedback	41	4	206.442281481481	198.14667037037	185.634414814815	50	3.91	11.5	21
440.097	4.005	43	valuation	293	4	237.566888888889	228.382418518518	222.876903703704	15	1.0455	3.837	9.7665
444.102	0.607000000000028	43	rating	293	4	237.566888888889	228.382418518518	222.876903703704	15	1.0455	3.837	9.7665
444.709	0	43	response	293	4	237.566888888889	228.382418518518	222.876903703704	15	1.0455	3.837	9.7665
444.709	0.5	43	feedback	293	4	237.566888888889	228.382418518518	222.876903703704	15	1.0455	3.837	9.7665
452.469	4.00900000000001	44	valuation	53	4	230.338377777778	209.626933333333	185.39507037037	115	10.5777	11.3735	30.23695
456.478	0.603999999999985	44	rating	53	4	230.338377777778	209.626933333333	185.39507037037	115	10.5777	11.3735	30.23695
457.082	0	44	response	53	4	230.338377777778	209.626933333333	185.39507037037	115	10.5777	11.3735	30.23695
457.082	0.5	44	feedback	53	4	230.338377777778	209.626933333333	185.39507037037	115	10.5777	11.3735	30.23695
464.32	4.00400000000002	45	valuation	139	4	221.89862962963	214.391892592593	207.001503703704	100	6.2	20.7	33.3
468.324	0.539999999999964	45	rating	139	4	221.89862962963	214.391892592593	207.001503703704	100	6.2	20.7	33.3
468.864	0	45	response	139	4	221.89862962963	214.391892592593	207.001503703704	100	6.2	20.7	33.3
468.864	0.5	45	feedback	139	4	221.89862962963	214.391892592593	207.001503703704	100	6.2	20.7	33.3
473.363	4.00400000000002	46	valuation	421	4	235.056318518519	197.617114814815	196.365037037037	120	3.72	12.72	33.84
477.367	0.621999999999957	46	rating	421	4	235.056318518519	197.617114814815	196.365037037037	120	3.72	12.72	33.84
477.989	0	46	response	421	4	235.056318518519	197.617114814815	196.365037037037	120	3.72	12.72	33.84
477.989	0.5	46	feedback	421	4	235.056318518519	197.617114814815	196.365037037037	120	3.72	12.72	33.84
481.835	4.00400000000002	47	valuation	205	2	234.69972962963	229.598588888889	221.566211111111	28	3.4608	0.2184	6.692
485.839	0.963999999999999	47	rating	205	2	234.69972962963	229.598588888889	221.566211111111	28	3.4608	0.2184	6.692
486.803	0	47	response	205	2	234.69972962963	229.598588888889	221.566211111111	28	3.4608	0.2184	6.692
486.803	0.5	47	feedback	205	2	234.69972962963	229.598588888889	221.566211111111	28	3.4608	0.2184	6.692
