onset	duration	trial_id	trial_type	image_id	rating_value	red	green	blue	gram	protein	fat	carb
10.068	4.014	1	valuation	434	2	237.630485185185	239.415551851852	232.272466666667	208	4.6592	0.7072	6.6768
14.082	0.646999999999998	1	rating	434	2	237.630485185185	239.415551851852	232.272466666667	208	4.6592	0.7072	6.6768
14.729	0	1	response	434	2	237.630485185185	239.415551851852	232.272466666667	208	4.6592	0.7072	6.6768
14.729	0.5	1	feedback	434	2	237.630485185185	239.415551851852	232.272466666667	208	4.6592	0.7072	6.6768
20.451	4.006	2	valuation	331	4	207.089233333333	190.472796296296	165.613433333333	70	4.347	15.19	30.023
24.457	0.617000000000001	2	rating	331	4	207.089233333333	190.472796296296	165.613433333333	70	4.347	15.19	30.023
25.074	0	2	response	331	4	207.089233333333	190.472796296296	165.613433333333	70	4.347	15.19	30.023
25.074	0.5	2	feedback	331	4	207.089233333333	190.472796296296	165.613433333333	70	4.347	15.19	30.023
31.963	4.006	3	valuation	29	3	214.292388888889	199.70152962963	173.978244444444	500	32.05	84.25	212.6
35.969	0.701999999999998	3	rating	29	3	214.292388888889	199.70152962963	173.978244444444	500	32.05	84.25	212.6
36.671	0	3	response	29	3	214.292388888889	199.70152962963	173.978244444444	500	32.05	84.25	212.6
36.671	0.5	3	feedback	29	3	214.292388888889	199.70152962963	173.978244444444	500	32.05	84.25	212.6
45.269	4.004	4	valuation	528	2	230.325681481481	196.577111111111	178.462585185185	312.5	2.1875	0.3125	29.375
49.273	0.815999999999995	4	rating	528	2	230.325681481481	196.577111111111	178.462585185185	312.5	2.1875	0.3125	29.375
50.089	0	4	response	528	2	230.325681481481	196.577111111111	178.462585185185	312.5	2.1875	0.3125	29.375
50.089	0.5	4	feedback	528	2	230.325681481481	196.577111111111	178.462585185185	312.5	2.1875	0.3125	29.375
57.622	4.007	5	valuation	47	3	234.398955555556	215.853603703704	189.506048148148	600	93.6	62.4	58.8
61.629	0.785000000000004	5	rating	47	3	234.398955555556	215.853603703704	189.506048148148	600	93.6	62.4	58.8
62.414	0	5	response	47	3	234.398955555556	215.853603703704	189.506048148148	600	93.6	62.4	58.8
62.414	0.5	5	feedback	47	3	234.398955555556	215.853603703704	189.506048148148	600	93.6	62.4	58.8
70.603	4.00500000000001	6	valuation	274	2	216.618640740741	231.883585185185	202.364651851852	100	2.52	0.3	0.55
74.608	0.661999999999992	6	rating	274	2	216.618640740741	231.883585185185	202.364651851852	100	2.52	0.3	0.55
75.27	0	6	response	274	2	216.618640740741	231.883585185185	202.364651851852	100	2.52	0.3	0.55
75.27	0.5	6	feedback	274	2	216.618640740741	231.883585185185	202.364651851852	100	2.52	0.3	0.55
80.849	4.005	7	valuation	433	1	240.476533333333	216.10922962963	201.709562962963	1200	16.8	2.4	55.2
84.854	0.658000000000001	7	rating	433	1	240.476533333333	216.10922962963	201.709562962963	1200	16.8	2.4	55.2
85.512	0	7	response	433	1	240.476533333333	216.10922962963	201.709562962963	1200	16.8	2.4	55.2
85.512	0.5	7	feedback	433	1	240.476533333333	216.10922962963	201.709562962963	1200	16.8	2.4	55.2
91.744	4.005	8	valuation	135	3	215.705422222222	199.328881481481	177.362159259259	180	10.62	37.8	93.6
95.749	0.688000000000002	8	rating	135	3	215.705422222222	199.328881481481	177.362159259259	180	10.62	37.8	93.6
96.437	0	8	response	135	3	215.705422222222	199.328881481481	177.362159259259	180	10.62	37.8	93.6
96.437	0.5	8	feedback	135	3	215.705422222222	199.328881481481	177.362159259259	180	10.62	37.8	93.6
102.8	4.00700000000001	9	valuation	170	4	235.570562962963	230.660907407407	228.13822962963	18.8	0.94	6.6928	10.528
106.807	0.608999999999995	9	rating	170	4	235.570562962963	230.660907407407	228.13822962963	18.8	0.94	6.6928	10.528
107.416	0	9	response	170	4	235.570562962963	230.660907407407	228.13822962963	18.8	0.94	6.6928	10.528
107.416	0.5	9	feedback	170	4	235.570562962963	230.660907407407	228.13822962963	18.8	0.94	6.6928	10.528
111.956	4.005	10	valuation	337	4	230.767918518518	215.990459259259	204.099437037037	300	32.34	9.51	9.93
115.961	0.900999999999996	10	rating	337	4	230.767918518518	215.990459259259	204.099437037037	300	32.34	9.51	9.93
116.862	0	10	response	337	4	230.767918518518	215.990459259259	204.099437037037	300	32.34	9.51	9.93
116.862	0.5	10	feedback	337	4	230.767918518518	215.990459259259	204.099437037037	300	32.34	9.51	9.93
122.831	4.006	11	valuation	326	3	231.977955555556	210.425733333333	187.739140740741	137.5	12.265	13.15875	36.06625
126.837	1.03	11	rating	326	3	231.977955555556	210.425733333333	187.739140740741	137.5	12.265	13.15875	36.06625
127.867	0	11	response	326	3	231.977955555556	210.425733333333	187.739140740741	137.5	12.265	13.15875	36.06625
127.867	0.5	11	feedback	326	3	231.977955555556	210.425733333333	187.739140740741	137.5	12.265	13.15875	36.06625
135.533	4.00500000000002	12	valuation	567	3	227.464122222222	202.702303703704	182.334788888889	120	7.8	6.36	2.4
139.538	0.758999999999986	12	rating	567	3	227.464122222222	202.702303703704	182.334788888889	120	7.8	6.36	2.4
140.297	0	12	response	567	3	227.464122222222	202.702303703704	182.334788888889	120	7.8	6.36	2.4
140.297	0.5	12	feedback	567	3	227.464122222222	202.702303703704	182.334788888889	120	7.8	6.36	2.4
145.36	4.00299999999999	13	valuation	394	3	230.083466666667	227.947159259259	183.958774074074	40	0.28	0.12	6.24
149.363	0.683999999999997	13	rating	394	3	230.083466666667	227.947159259259	183.958774074074	40	0.28	0.12	6.24
150.047	0	13	response	394	3	230.083466666667	227.947159259259	183.958774074074	40	0.28	0.12	6.24
150.047	0.5	13	feedback	394	3	230.083466666667	227.947159259259	183.958774074074	40	0.28	0.12	6.24
155.499	4.006	14	valuation	392	2	251.009055555556	230.618544444444	198.181259259259	396	2.772	1.188	39.996
159.505	0.450999999999993	14	rating	392	2	251.009055555556	230.618544444444	198.181259259259	396	2.772	1.188	39.996
159.956	0	14	response	392	2	251.009055555556	230.618544444444	198.181259259259	396	2.772	1.188	39.996
159.956	0.5	14	feedback	392	2	251.009055555556	230.618544444444	198.181259259259	396	2.772	1.188	39.996
165.276	4.005	15	valuation	329	3	251.147081481481	209.536566666667	191.461725925926	50	9.5	6.5	0
169.281	0.924999999999983	15	rating	329	3	251.147081481481	209.536566666667	191.461725925926	50	9.5	6.5	0
170.206	0	15	response	329	3	251.147081481481	209.536566666667	191.461725925926	50	9.5	6.5	0
170.206	0.5	15	feedback	329	3	251.147081481481	209.536566666667	191.461725925926	50	9.5	6.5	0
177.49	4.00299999999999	16	valuation	506	4	179.659574074074	169.293444444444	160.883525925926	13	0.39	1.3	8.97
181.493	0.937000000000012	16	rating	506	4	179.659574074074	169.293444444444	160.883525925926	13	0.39	1.3	8.97
182.43	0	16	response	506	4	179.659574074074	169.293444444444	160.883525925926	13	0.39	1.3	8.97
182.43	0.5	16	feedback	506	4	179.659574074074	169.293444444444	160.883525925926	13	0.39	1.3	8.97
185.146	4.00400000000002	17	valuation	179	3	210.192144444444	193.826733333333	179.006907407407	450	23.85	99	217.35
189.15	0.699999999999989	17	rating	179	3	210.192144444444	193.826733333333	179.006907407407	450	23.85	99	217.35
189.85	0	17	response	179	3	210.192144444444	193.826733333333	179.006907407407	450	23.85	99	217.35
189.85	0.5	17	feedback	179	3	210.192144444444	193.826733333333	179.006907407407	450	23.85	99	217.35
193.608	4.00700000000001	18	valuation	225	3	227.461903703704	225.681551851852	215.026066666667	28	3.45996	0.2184	6.692
197.615	1.273	18	rating	225	3	227.461903703704	225.681551851852	215.026066666667	28	3.45996	0.2184	6.692
198.888	0	18	response	225	3	227.461903703704	225.681551851852	215.026066666667	28	3.45996	0.2184	6.692
198.888	0.5	18	feedback	225	3	227.461903703704	225.681551851852	215.026066666667	28	3.45996	0.2184	6.692
205.646	4.00500000000002	19	valuation	367	2	211.109437037037	217.184096296296	208.729796296296	400	6.4	1.6	8.2
209.651	0.679000000000002	19	rating	367	2	211.109437037037	217.184096296296	208.729796296296	400	6.4	1.6	8.2
210.33	0	19	response	367	2	211.109437037037	217.184096296296	208.729796296296	400	6.4	1.6	8.2
210.33	0.5	19	feedback	367	2	211.109437037037	217.184096296296	208.729796296296	400	6.4	1.6	8.2
213.435	4.005	20	valuation	143	3	215.891240740741	195.539033333333	177.243351851852	800	45.6	40.8	104
217.44	0.509999999999991	20	rating	143	3	215.891240740741	195.539033333333	177.243351851852	800	45.6	40.8	104
217.95	0	20	response	143	3	215.891240740741	195.539033333333	177.243351851852	800	45.6	40.8	104
217.95	0.5	20	feedback	143	3	215.891240740741	195.539033333333	177.243351851852	800	45.6	40.8	104
222.224	4.00500000000002	21	valuation	137	3	235.596192592593	223.724274074074	213.428074074074	75	4.65	15.525	36.75
226.229	0.647999999999996	21	rating	137	3	235.596192592593	223.724274074074	213.428074074074	75	4.65	15.525	36.75
226.877	0	21	response	137	3	235.596192592593	223.724274074074	213.428074074074	75	4.65	15.525	36.75
226.877	0.5	21	feedback	137	3	235.596192592593	223.724274074074	213.428074074074	75	4.65	15.525	36.75
230.77	4.006	22	valuation	289	3	208.197966666667	194.403118518519	189.596359259259	55	3.025	11.605	37.015
234.776	0.857999999999976	22	rating	289	3	208.197966666667	194.403118518519	189.596359259259	55	3.025	11.605	37.015
235.634	0	22	response	289	3	208.197966666667	194.403118518519	189.596359259259	55	3.025	11.605	37.015
235.634	0.5	22	feedback	289	3	208.197966666667	194.403118518519	189.596359259259	55	3.025	11.605	37.015
243.566	4.00999999999999	23	valuation	247	1	212.764518518519	215.636559259259	206.864307407407	250	2.925	0.75	7.275
247.576	0.659999999999997	23	rating	247	1	212.764518518519	215.636559259259	206.864307407407	250	2.925	0.75	7.275
248.236	0	23	response	247	1	212.764518518519	215.636559259259	206.864307407407	250	2.925	0.75	7.275
248.236	0.5	23	feedback	247	1	212.764518518519	215.636559259259	206.864307407407	250	2.925	0.75	7.275
253.424	4.00399999999999	24	valuation	43	3	245.816162962963	226.076507407407	162.769114814815	20	1.096	7.88	8.12
257.428	0.596000000000004	24	rating	43	3	245.816162962963	226.076507407407	162.769114814815	20	1.096	7.88	8.12
258.024	0	24	response	43	3	245.816162962963	226.076507407407	162.769114814815	20	1.096	7.88	8.12
258.024	0.5	24	feedback	43	3	245.816162962963	226.076507407407	162.769114814815	20	1.096	7.88	8.12
262.956	4.00399999999996	25	valuation	241	1	243.282040740741	236.463888888889	225.625177777778	300	1.41	0.84	34.59
266.96	0.506000000000029	25	rating	241	1	243.282040740741	236.463888888889	225.625177777778	300	1.41	0.84	34.59
267.466	0	25	response	241	1	243.282040740741	236.463888888889	225.625177777778	300	1.41	0.84	34.59
267.466	0.5	25	feedback	241	1	243.282040740741	236.463888888889	225.625177777778	300	1.41	0.84	34.59
271.61	4.005	26	valuation	467	1	235.438548148148	183.369574074074	185.718259259259	5	0.065	0.015	0.24
275.615	0.834000000000003	26	rating	467	1	235.438548148148	183.369574074074	185.718259259259	5	0.065	0.015	0.24
276.449	0	26	response	467	1	235.438548148148	183.369574074074	185.718259259259	5	0.065	0.015	0.24
276.449	0.5	26	feedback	467	1	235.438548148148	183.369574074074	185.718259259259	5	0.065	0.015	0.24
283.857	4.00999999999999	27	valuation	259	2	218.695496296296	192.047703703704	203.066840740741	1600	18.72	2.24	44.16
287.867	0.562999999999988	27	rating	259	2	218.695496296296	192.047703703704	203.066840740741	1600	18.72	2.24	44.16
288.43	0	27	response	259	2	218.695496296296	192.047703703704	203.066840740741	1600	18.72	2.24	44.16
288.43	0.5	27	feedback	259	2	218.695496296296	192.047703703704	203.066840740741	1600	18.72	2.24	44.16
294.274	4.00299999999999	28	valuation	16	4	231.443377777778	213.845492592593	198.130418518519	800	62.88	160	360
298.277	0.603999999999985	28	rating	16	4	231.443377777778	213.845492592593	198.130418518519	800	62.88	160	360
298.881	0	28	response	16	4	231.443377777778	213.845492592593	198.130418518519	800	62.88	160	360
298.881	0.5	28	feedback	16	4	231.443377777778	213.845492592593	198.130418518519	800	62.88	160	360
301.724	4.005	29	valuation	222	3	219.130407407407	199.355118518519	187.088674074074	60	0.468	0.234	3.198
305.729	0.608000000000004	29	rating	222	3	219.130407407407	199.355118518519	187.088674074074	60	0.468	0.234	3.198
306.337	0	29	response	222	3	219.130407407407	199.355118518519	187.088674074074	60	0.468	0.234	3.198
306.337	0.5	29	feedback	222	3	219.130407407407	199.355118518519	187.088674074074	60	0.468	0.234	3.198
313.356	4.00799999999998	30	valuation	20	3	231.082603703704	212.621714814815	188.195388888889	300	20.01	39.99	125.01
317.364	0.795000000000016	30	rating	20	3	231.082603703704	212.621714814815	188.195388888889	300	20.01	39.99	125.01
318.159	0	30	response	20	3	231.082603703704	212.621714814815	188.195388888889	300	20.01	39.99	125.01
318.159	0.5	30	feedback	20	3	231.082603703704	212.621714814815	188.195388888889	300	20.01	39.99	125.01
321.524	4.00299999999999	31	valuation	398	2	227.902722222222	216.102292592593	218.140988888889	80	0.72	0.24	10.64
325.527	0.636000000000024	31	rating	398	2	227.902722222222	216.102292592593	218.140988888889	80	0.72	0.24	10.64
326.163	0	31	response	398	2	227.902722222222	216.102292592593	218.140988888889	80	0.72	0.24	10.64
326.163	0.5	31	feedback	398	2	227.902722222222	216.102292592593	218.140988888889	80	0.72	0.24	10.64
332.267	4.005	32	valuation	57	3	219.575303703704	211.099451851852	193.704033333333	210	29.106	37.338	39.333
336.272	0.50200000000001	32	rating	57	3	219.575303703704	211.099451851852	193.704033333333	210	29.106	37.338	39.333
336.774	0	32	response	57	3	219.575303703704	211.099451851852	193.704033333333	210	29.106	37.338	39.333
336.774	0.5	32	feedback	57	3	219.575303703704	211.099451851852	193.704033333333	210	29.106	37.338	39.333
345.361	4.00900000000001	33	valuation	372	4	243.878866666667	227.843533333333	196.686544444444	40	3.6	1.4	29.6
349.37	1.56999999999999	33	rating	372	4	243.878866666667	227.843533333333	196.686544444444	40	3.6	1.4	29.6
350.94	0	33	response	372	4	243.878866666667	227.843533333333	196.686544444444	40	3.6	1.4	29.6
350.94	0.5	33	feedback	372	4	243.878866666667	227.843533333333	196.686544444444	40	3.6	1.4	29.6
357.437	4.00599999999997	34	valuation	234	3	220.932896296296	199.742540740741	191.633251851852	30	0.234	0.117	1.599
361.443	1.19499999999999	34	rating	234	3	220.932896296296	199.742540740741	191.633251851852	30	0.234	0.117	1.599
362.638	0	34	response	234	3	220.932896296296	199.742540740741	191.633251851852	30	0.234	0.117	1.599
362.638	0.5	34	feedback	234	3	220.932896296296	199.742540740741	191.633251851852	30	0.234	0.117	1.599
367.438	4.005	35	valuation	87	3	223.286288888889	209.11392962963	188.684481481482	236	28.32	28.32	33.04
371.443	0.608000000000004	35	rating	87	3	223.286288888889	209.11392962963	188.684481481482	236	28.32	28.32	33.04
372.051	0	35	response	87	3	223.286288888889	209.11392962963	188.684481481482	236	28.32	28.32	33.04
372.051	0.5	35	feedback	87	3	223.286288888889	209.11392962963	188.684481481482	236	28.32	28.32	33.04
380.093	4.005	36	valuation	503	2	241.178181481481	220.964318518518	182.183774074074	60	3.42	18.42	34.38
384.098	0.991999999999962	36	rating	503	2	241.178181481481	220.964318518518	182.183774074074	60	3.42	18.42	34.38
385.09	0	36	response	503	2	241.178181481481	220.964318518518	182.183774074074	60	3.42	18.42	34.38
385.09	0.5	36	feedback	503	2	241.178181481481	220.964318518518	182.183774074074	60	3.42	18.42	34.38
388.332	4.00299999999999	37	valuation	484	3	211.337140740741	193.628922222222	178.162685185185	440	44.88	6.292	33.924
392.335	1.15000000000003	37	rating	484	3	211.337140740741	193.628922222222	178.162685185185	440	44.88	6.292	33.924
393.485	0	37	response	484	3	211.337140740741	193.628922222222	178.162685185185	440	44.88	6.292	33.924
393.485	0.5	37	feedback	484	3	211.337140740741	193.628922222222	178.162685185185	440	44.88	6.292	33.924
401.805	4.012	38	valuation	411	2	211.580766666667	201.367574074074	172.838374074074	380	13.414	1.444	19
405.817	1.12700000000001	38	rating	411	2	211.580766666667	201.367574074074	172.838374074074	380	13.414	1.444	19
406.944	0	38	response	411	2	211.580766666667	201.367574074074	172.838374074074	380	13.414	1.444	19
406.944	0.5	38	feedback	411	2	211.580766666667	201.367574074074	172.838374074074	380	13.414	1.444	19
411.612	4.005	39	valuation	341	2	243.643766666667	235.343803703704	207.559322222222	396	4.554	0.7128	84.7044
415.617	0.466999999999985	39	rating	341	2	243.643766666667	235.343803703704	207.559322222222	396	4.554	0.7128	84.7044
416.084	0	39	response	341	2	243.643766666667	235.343803703704	207.559322222222	396	4.554	0.7128	84.7044
416.084	0.5	39	feedback	341	2	243.643766666667	235.343803703704	207.559322222222	396	4.554	0.7128	84.7044
419.711	4.00399999999996	40	valuation	107	4	211.284196296296	202.555433333333	200.890696296296	120	6.48	18.48	61.8
423.715	0.749000000000024	40	rating	107	4	211.284196296296	202.555433333333	200.890696296296	120	6.48	18.48	61.8
424.464	0	40	response	107	4	211.284196296296	202.555433333333	200.890696296296	120	6.48	18.48	61.8
424.464	0.5	40	feedback	107	4	211.284196296296	202.555433333333	200.890696296296	120	6.48	18.48	61.8
432.263	4.005	41	valuation	144	3	219.844614814815	200.664633333333	183.479592592593	800	45.6	40.8	104
436.268	0.479000000000042	41	rating	144	3	219.844614814815	200.664633333333	183.479592592593	800	45.6	40.8	104
436.747	0	41	response	144	3	219.844614814815	200.664633333333	183.479592592593	800	45.6	40.8	104
436.747	0.5	41	feedback	144	3	219.844614814815	200.664633333333	183.479592592593	800	45.6	40.8	104
440.763	4.00700000000001	42	valuation	32	3	205.8006	176.317555555556	148.889348148148	550	36.025	31.02	116.985
444.77	0.855000000000018	42	rating	32	3	205.8006	176.317555555556	148.889348148148	550	36.025	31.02	116.985
445.625	0	42	response	32	3	205.8006	176.317555555556	148.889348148148	550	36.025	31.02	116.985
445.625	0.5	42	feedback	32	3	205.8006	176.317555555556	148.889348148148	550	36.025	31.02	116.985
452.246	4.01100000000002	43	valuation	321	2	244.035311111111	236.397792592593	226.841944444444	50	6.5	5.55	0.35
456.257	0.778999999999996	43	rating	321	2	244.035311111111	236.397792592593	226.841944444444	50	6.5	5.55	0.35
457.036	0	43	response	321	2	244.035311111111	236.397792592593	226.841944444444	50	6.5	5.55	0.35
457.036	0.5	43	feedback	321	2	244.035311111111	236.397792592593	226.841944444444	50	6.5	5.55	0.35
459.616	4.005	44	valuation	330	3	238.498125925926	234.545148148148	229.275044444444	200	6	2	6
463.621	1.17500000000001	44	rating	330	3	238.498125925926	234.545148148148	229.275044444444	200	6	2	6
464.796	0	44	response	330	3	238.498125925926	234.545148148148	229.275044444444	200	6	2	6
464.796	0.5	44	feedback	330	3	238.498125925926	234.545148148148	229.275044444444	200	6	2	6
468.29	4.00399999999996	45	valuation	511	3	224.207688888889	218.813522222222	210.636292592593	17	0.765	5.78	9.095
472.294	0.992000000000019	45	rating	511	3	224.207688888889	218.813522222222	210.636292592593	17	0.765	5.78	9.095
473.286	0	45	response	511	3	224.207688888889	218.813522222222	210.636292592593	17	0.765	5.78	9.095
473.286	0.5	45	feedback	511	3	224.207688888889	218.813522222222	210.636292592593	17	0.765	5.78	9.095
480.441	4.00500000000005	46	valuation	519	3	236.281544444444	236.0805	224.433962962963	50	10.5	11.15	0.05
484.446	0.774000000000001	46	rating	519	3	236.281544444444	236.0805	224.433962962963	50	10.5	11.15	0.05
485.22	0	46	response	519	3	236.281544444444	236.0805	224.433962962963	50	10.5	11.15	0.05
485.22	0.5	46	feedback	519	3	236.281544444444	236.0805	224.433962962963	50	10.5	11.15	0.05
489.628	4.00600000000003	47	valuation	522	1	211.285055555556	209.573311111111	184.721655555556	320	4.48	0.48	7.2
493.634	0.656000000000006	47	rating	522	1	211.285055555556	209.573311111111	184.721655555556	320	4.48	0.48	7.2
494.29	0	47	response	522	1	211.285055555556	209.573311111111	184.721655555556	320	4.48	0.48	7.2
494.29	0.5	47	feedback	522	1	211.285055555556	209.573311111111	184.721655555556	320	4.48	0.48	7.2
