onset	duration	trial_id	trial_type	image_id	rating_value	red	green	blue	gram	protein	fat	carb
10.061	4.008	1	valuation	310	3	242.471503703704	215.496444444444	180.650911111111	65	9.1455	2.548	34.099
14.069	0.581999999999999	1	rating	310	3	242.471503703704	215.496444444444	180.650911111111	65	9.1455	2.548	34.099
14.651	0	1	response	310	3	242.471503703704	215.496444444444	180.650911111111	65	9.1455	2.548	34.099
14.651	0.5	1	feedback	310	3	242.471503703704	215.496444444444	180.650911111111	65	9.1455	2.548	34.099
22.09	4.004	2	valuation	204	2	225.075844444444	209.55872962963	187.369118518519	1350	4.185	5.4	153.9
26.094	0.452999999999999	2	rating	204	2	225.075844444444	209.55872962963	187.369118518519	1350	4.185	5.4	153.9
26.547	0	2	response	204	2	225.075844444444	209.55872962963	187.369118518519	1350	4.185	5.4	153.9
26.547	0.5	2	feedback	204	2	225.075844444444	209.55872962963	187.369118518519	1350	4.185	5.4	153.9
34.104	4.006	3	valuation	466	2	222.330807407407	236.305674074074	172.409511111111	220	0.748	0	25.146
38.11	0.597999999999999	3	rating	466	2	222.330807407407	236.305674074074	172.409511111111	220	0.748	0	25.146
38.708	0	3	response	466	2	222.330807407407	236.305674074074	172.409511111111	220	0.748	0	25.146
38.708	0.5	3	feedback	466	2	222.330807407407	236.305674074074	172.409511111111	220	0.748	0	25.146
42.573	4.004	4	valuation	439	3	250.754066666667	242.448981481481	224.900192592593	25	1.84	0.835	11.9225
46.577	0.603999999999999	4	rating	439	3	250.754066666667	242.448981481481	224.900192592593	25	1.84	0.835	11.9225
47.181	0	4	response	439	3	250.754066666667	242.448981481481	224.900192592593	25	1.84	0.835	11.9225
47.181	0.5	4	feedback	439	3	250.754066666667	242.448981481481	224.900192592593	25	1.84	0.835	11.9225
53.341	4.007	5	valuation	469	3	243.717551851852	232.71842962963	214.081474074074	50	3.68	1.67	23.845
57.348	0.600000000000001	5	rating	469	3	243.717551851852	232.71842962963	214.081474074074	50	3.68	1.67	23.845
57.948	0	5	response	469	3	243.717551851852	232.71842962963	214.081474074074	50	3.68	1.67	23.845
57.948	0.5	5	feedback	469	3	243.717551851852	232.71842962963	214.081474074074	50	3.68	1.67	23.845
66.405	4.00700000000001	6	valuation	142	3	228.299040740741	204.456944444444	180.764848148148	1000	57	51	130
70.412	1.22699999999999	6	rating	142	3	228.299040740741	204.456944444444	180.764848148148	1000	57	51	130
71.639	0	6	response	142	3	228.299040740741	204.456944444444	180.764848148148	1000	57	51	130
71.639	0.5	6	feedback	142	3	228.299040740741	204.456944444444	180.764848148148	1000	57	51	130
77.92	4.005	7	valuation	227	3	230.656755555556	218.651237037037	207.1778	150	7.5	3.15	43.2
81.925	0.885000000000005	7	rating	227	3	230.656755555556	218.651237037037	207.1778	150	7.5	3.15	43.2
82.81	0	7	response	227	3	230.656755555556	218.651237037037	207.1778	150	7.5	3.15	43.2
82.81	0.5	7	feedback	227	3	230.656755555556	218.651237037037	207.1778	150	7.5	3.15	43.2
91.133	4.006	8	valuation	156	3	241.581185185185	221.234507407407	201.485144444444	50	3.75	3.5	26
95.139	0.957000000000008	8	rating	156	3	241.581185185185	221.234507407407	201.485144444444	50	3.75	3.5	26
96.096	0	8	response	156	3	241.581185185185	221.234507407407	201.485144444444	50	3.75	3.5	26
96.096	0.5	8	feedback	156	3	241.581185185185	221.234507407407	201.485144444444	50	3.75	3.5	26
101.484	4.00500000000001	9	valuation	62	3	231.827648148148	219.497414814815	207.432437037037	70	6.195	2.1	36.33
105.489	1.092	9	rating	62	3	231.827648148148	219.497414814815	207.432437037037	70	6.195	2.1	36.33
106.581	0	9	response	62	3	231.827648148148	219.497414814815	207.432437037037	70	6.195	2.1	36.33
106.581	0.5	9	feedback	62	3	231.827648148148	219.497414814815	207.432437037037	70	6.195	2.1	36.33
113.251	4.006	10	valuation	324	3	210.538122222222	181.569266666667	166.688944444445	150	32.55	24.15	6.75
117.257	1.423	10	rating	324	3	210.538122222222	181.569266666667	166.688944444445	150	32.55	24.15	6.75
118.68	0	10	response	324	3	210.538122222222	181.569266666667	166.688944444445	150	32.55	24.15	6.75
118.68	0.5	10	feedback	324	3	210.538122222222	181.569266666667	166.688944444445	150	32.55	24.15	6.75
121.391	4.00399999999999	11	valuation	200	2	240.261533333333	228.197455555556	202.091514814815	560	4.032	0.784	37.072
125.395	1.04600000000001	11	rating	200	2	240.261533333333	228.197455555556	202.091514814815	560	4.032	0.784	37.072
126.441	0	11	response	200	2	240.261533333333	228.197455555556	202.091514814815	560	4.032	0.784	37.072
126.441	0.5	11	feedback	200	2	240.261533333333	228.197455555556	202.091514814815	560	4.032	0.784	37.072
131.579	4.005	12	valuation	82	3	226.726892592593	215.3494	194.420237037037	800	192	232	0.4
135.584	0.701999999999998	12	rating	82	3	226.726892592593	215.3494	194.420237037037	800	192	232	0.4
136.286	0	12	response	82	3	226.726892592593	215.3494	194.420237037037	800	192	232	0.4
136.286	0.5	12	feedback	82	3	226.726892592593	215.3494	194.420237037037	800	192	232	0.4
139.376	4.00399999999999	13	valuation	221	2	247.777751851852	236.150540740741	200.482888888889	200	2	0.4	18.38
143.38	1.28300000000002	13	rating	221	2	247.777751851852	236.150540740741	200.482888888889	200	2	0.4	18.38
144.663	0	13	response	221	2	247.777751851852	236.150540740741	200.482888888889	200	2	0.4	18.38
144.663	0.5	13	feedback	221	2	247.777751851852	236.150540740741	200.482888888889	200	2	0.4	18.38
150.562	4.005	14	valuation	91	3	231.324514814815	211.111925925926	188.376314814815	240	28.8	28.8	33.6
154.567	0.679000000000002	14	rating	91	3	231.324514814815	211.111925925926	188.376314814815	240	28.8	28.8	33.6
155.246	0	14	response	91	3	231.324514814815	211.111925925926	188.376314814815	240	28.8	28.8	33.6
155.246	0.5	14	feedback	91	3	231.324514814815	211.111925925926	188.376314814815	240	28.8	28.8	33.6
158.716	4.005	15	valuation	371	4	251.071388888889	212.9891	185.572385185185	35	3.15	0.735	12.95
162.721	0.516999999999996	15	rating	371	4	251.071388888889	212.9891	185.572385185185	35	3.15	0.735	12.95
163.238	0	15	response	371	4	251.071388888889	212.9891	185.572385185185	35	3.15	0.735	12.95
163.238	0.5	15	feedback	371	4	251.071388888889	212.9891	185.572385185185	35	3.15	0.735	12.95
167.478	4.00299999999999	16	valuation	27	3	228.551785185185	219.525462962963	198.217625925926	200	10.96	78.8	81.2
171.481	0.461000000000013	16	rating	27	3	228.551785185185	219.525462962963	198.217625925926	200	10.96	78.8	81.2
171.942	0	16	response	27	3	228.551785185185	219.525462962963	198.217625925926	200	10.96	78.8	81.2
171.942	0.5	16	feedback	27	3	228.551785185185	219.525462962963	198.217625925926	200	10.96	78.8	81.2
174.906	4.005	17	valuation	305	1	206.585207407407	213.726974074074	188.382233333333	90	3.33	0.486	12.663
178.911	0.655000000000001	17	rating	305	1	206.585207407407	213.726974074074	188.382233333333	90	3.33	0.486	12.663
179.566	0	17	response	305	1	206.585207407407	213.726974074074	188.382233333333	90	3.33	0.486	12.663
179.566	0.5	17	feedback	305	1	206.585207407407	213.726974074074	188.382233333333	90	3.33	0.486	12.663
185.599	4.00500000000002	18	valuation	302	3	247.920840740741	207.924792592593	173.305907407407	180	25.2	15.804	25.38
189.604	0.714999999999975	18	rating	302	3	247.920840740741	207.924792592593	173.305907407407	180	25.2	15.804	25.38
190.319	0	18	response	302	3	247.920840740741	207.924792592593	173.305907407407	180	25.2	15.804	25.38
190.319	0.5	18	feedback	302	3	247.920840740741	207.924792592593	173.305907407407	180	25.2	15.804	25.38
197.367	4.00500000000002	19	valuation	214	2	217.923725925926	202.65282962963	198.649962962963	125	1.25	0.625	7.5
201.372	1.125	19	rating	214	2	217.923725925926	202.65282962963	198.649962962963	125	1.25	0.625	7.5
202.497	0	19	response	214	2	217.923725925926	202.65282962963	198.649962962963	125	1.25	0.625	7.5
202.497	0.5	19	feedback	214	2	217.923725925926	202.65282962963	198.649962962963	125	1.25	0.625	7.5
207.115	4.005	20	valuation	284	3	216.230988888889	202.983677777778	199.322748148148	30	0.3	0.09	4.68
211.12	0.519000000000005	20	rating	284	3	216.230988888889	202.983677777778	199.322748148148	30	0.3	0.09	4.68
211.639	0	20	response	284	3	216.230988888889	202.983677777778	199.322748148148	30	0.3	0.09	4.68
211.639	0.5	20	feedback	284	3	216.230988888889	202.983677777778	199.322748148148	30	0.3	0.09	4.68
216.133	4.005	21	valuation	79	3	222.767307407407	212.900837037037	206.303085185185	24	1.464	5.04	16.32
220.138	0.637	21	rating	79	3	222.767307407407	212.900837037037	206.303085185185	24	1.464	5.04	16.32
220.775	0	21	response	79	3	222.767307407407	212.900837037037	206.303085185185	24	1.464	5.04	16.32
220.775	0.5	21	feedback	79	3	222.767307407407	212.900837037037	206.303085185185	24	1.464	5.04	16.32
227.954	4.00999999999999	22	valuation	355	2	223.183255555556	202.252092592593	177.950788888889	1250	38.75	111.25	365
231.964	0.781000000000006	22	rating	355	2	223.183255555556	202.252092592593	177.950788888889	1250	38.75	111.25	365
232.745	0	22	response	355	2	223.183255555556	202.252092592593	177.950788888889	1250	38.75	111.25	365
232.745	0.5	22	feedback	355	2	223.183255555556	202.252092592593	177.950788888889	1250	38.75	111.25	365
236.856	4.005	23	valuation	78	3	234.001433333333	220.606492592593	207.365781481481	350	28	40.46	130.55
240.861	0.774000000000001	23	rating	78	3	234.001433333333	220.606492592593	207.365781481481	350	28	40.46	130.55
241.635	0	23	response	78	3	234.001433333333	220.606492592593	207.365781481481	350	28	40.46	130.55
241.635	0.5	23	feedback	78	3	234.001433333333	220.606492592593	207.365781481481	350	28	40.46	130.55
248.56	4.00899999999999	24	valuation	272	1	226.874996296296	232.635744444444	227.7664	30	1.074	0.18	0.48
252.569	0.527000000000015	24	rating	272	1	226.874996296296	232.635744444444	227.7664	30	1.074	0.18	0.48
253.096	0	24	response	272	1	226.874996296296	232.635744444444	227.7664	30	1.074	0.18	0.48
253.096	0.5	24	feedback	272	1	226.874996296296	232.635744444444	227.7664	30	1.074	0.18	0.48
258.742	4.00299999999999	25	valuation	215	1	226.313933333333	219.814351851852	192.275048148148	50	0.391	0.073	1.969
262.745	0.629999999999995	25	rating	215	1	226.313933333333	219.814351851852	192.275048148148	50	0.391	0.073	1.969
263.375	0	25	response	215	1	226.313933333333	219.814351851852	192.275048148148	50	0.391	0.073	1.969
263.375	0.5	25	feedback	215	1	226.313933333333	219.814351851852	192.275048148148	50	0.391	0.073	1.969
271.952	4.005	26	valuation	220	2	232.438803703704	218.037377777778	193.591122222222	900	7.47	1.71	75.24
275.957	0.58499999999998	26	rating	220	2	232.438803703704	218.037377777778	193.591122222222	900	7.47	1.71	75.24
276.542	0	26	response	220	2	232.438803703704	218.037377777778	193.591122222222	900	7.47	1.71	75.24
276.542	0.5	26	feedback	220	2	232.438803703704	218.037377777778	193.591122222222	900	7.47	1.71	75.24
279.122	4.00599999999997	27	valuation	443	3	240.5417	201.828692592593	173.333833333333	40	2.2	9.2	14.4
283.128	0.574000000000012	27	rating	443	3	240.5417	201.828692592593	173.333833333333	40	2.2	9.2	14.4
283.702	0	27	response	443	3	240.5417	201.828692592593	173.333833333333	40	2.2	9.2	14.4
283.702	0.5	27	feedback	443	3	240.5417	201.828692592593	173.333833333333	40	2.2	9.2	14.4
288.071	4.00299999999999	28	valuation	54	3	230.317233333333	217.095607407407	192.581888888889	500	143.5	150	0
292.074	1.29599999999999	28	rating	54	3	230.317233333333	217.095607407407	192.581888888889	500	143.5	150	0
293.37	0	28	response	54	3	230.317233333333	217.095607407407	192.581888888889	500	143.5	150	0
293.37	0.5	28	feedback	54	3	230.317233333333	217.095607407407	192.581888888889	500	143.5	150	0
296.971	4.00599999999997	29	valuation	409	2	219.765203703704	214.266048148148	206.449322222222	250	46.25	30	0
300.977	0.701999999999998	29	rating	409	2	219.765203703704	214.266048148148	206.449322222222	250	46.25	30	0
301.679	0	29	response	409	2	219.765203703704	214.266048148148	206.449322222222	250	46.25	30	0
301.679	0.5	29	feedback	409	2	219.765203703704	214.266048148148	206.449322222222	250	46.25	30	0
307.197	4.00599999999997	30	valuation	120	3	244.170507407407	226.092925925926	203.564033333333	280	14.56	52.64	100.52
311.203	0.576000000000022	30	rating	120	3	244.170507407407	226.092925925926	203.564033333333	280	14.56	52.64	100.52
311.779	0	30	response	120	3	244.170507407407	226.092925925926	203.564033333333	280	14.56	52.64	100.52
311.779	0.5	30	feedback	120	3	244.170507407407	226.092925925926	203.564033333333	280	14.56	52.64	100.52
317.047	4.00399999999996	31	valuation	362	1	206.639866666667	195.098877777778	175.54102962963	120	2.4	0.24	3.72
321.051	0.612000000000023	31	rating	362	1	206.639866666667	195.098877777778	175.54102962963	120	2.4	0.24	3.72
321.663	0	31	response	362	1	206.639866666667	195.098877777778	175.54102962963	120	2.4	0.24	3.72
321.663	0.5	31	feedback	362	1	206.639866666667	195.098877777778	175.54102962963	120	2.4	0.24	3.72
329.863	4.00900000000001	32	valuation	543	3	227.375385185185	233.356462962963	195.138307407407	500	3.5	1.5	78
333.872	0.588999999999999	32	rating	543	3	227.375385185185	233.356462962963	195.138307407407	500	3.5	1.5	78
334.461	0	32	response	543	3	227.375385185185	233.356462962963	195.138307407407	500	3.5	1.5	78
334.461	0.5	32	feedback	543	3	227.375385185185	233.356462962963	195.138307407407	500	3.5	1.5	78
337.805	4.005	33	valuation	139	4	221.89862962963	214.391892592593	207.001503703704	100	6.2	20.7	33.3
341.81	1.33100000000002	33	rating	139	4	221.89862962963	214.391892592593	207.001503703704	100	6.2	20.7	33.3
343.141	0	33	response	139	4	221.89862962963	214.391892592593	207.001503703704	100	6.2	20.7	33.3
343.141	0.5	33	feedback	139	4	221.89862962963	214.391892592593	207.001503703704	100	6.2	20.7	33.3
347.893	4.00500000000005	34	valuation	377	3	239.679737037037	207.307562962963	170.026059259259	60	4.8	11.82	27.54
351.898	0.518999999999949	34	rating	377	3	239.679737037037	207.307562962963	170.026059259259	60	4.8	11.82	27.54
352.417	0	34	response	377	3	239.679737037037	207.307562962963	170.026059259259	60	4.8	11.82	27.54
352.417	0.5	34	feedback	377	3	239.679737037037	207.307562962963	170.026059259259	60	4.8	11.82	27.54
360.227	4.00500000000005	35	valuation	118	3	238.908655555556	227.220633333333	216.094551851852	250	3.5	14.9	73.2
364.232	0.683999999999969	35	rating	118	3	238.908655555556	227.220633333333	216.094551851852	250	3.5	14.9	73.2
364.916	0	35	response	118	3	238.908655555556	227.220633333333	216.094551851852	250	3.5	14.9	73.2
364.916	0.5	35	feedback	118	3	238.908655555556	227.220633333333	216.094551851852	250	3.5	14.9	73.2
368.773	4.005	36	valuation	58	3	233.422385185185	221.863414814815	204.117711111111	232	19.0008	11.9944	45.008
372.778	0.71999999999997	36	rating	58	3	233.422385185185	221.863414814815	204.117711111111	232	19.0008	11.9944	45.008
373.498	0	36	response	58	3	233.422385185185	221.863414814815	204.117711111111	232	19.0008	11.9944	45.008
373.498	0.5	36	feedback	58	3	233.422385185185	221.863414814815	204.117711111111	232	19.0008	11.9944	45.008
380.807	4.00899999999996	37	valuation	308	4	249.816566666667	222.548488888889	208.410192592593	30	5.28	0.69	10.65
384.816	1.17800000000005	37	rating	308	4	249.816566666667	222.548488888889	208.410192592593	30	5.28	0.69	10.65
385.994	0	37	response	308	4	249.816566666667	222.548488888889	208.410192592593	30	5.28	0.69	10.65
385.994	0.5	37	feedback	308	4	249.816566666667	222.548488888889	208.410192592593	30	5.28	0.69	10.65
391.77	4.00600000000003	38	valuation	339	3	242.204418518518	216.689951851852	205.899985185185	80	4.8	0	63.2
395.776	1.03300000000002	38	rating	339	3	242.204418518518	216.689951851852	205.899985185185	80	4.8	0	63.2
396.809	0	38	response	339	3	242.204418518518	216.689951851852	205.899985185185	80	4.8	0	63.2
396.809	0.5	38	feedback	339	3	242.204418518518	216.689951851852	205.899985185185	80	4.8	0	63.2
403.602	4.00600000000003	39	valuation	390	1	244.547496296296	242.352418518518	242.791881481481	150	0.15	0	3.9
407.608	0.671999999999969	39	rating	390	1	244.547496296296	242.352418518518	242.791881481481	150	0.15	0	3.9
408.28	0	39	response	390	1	244.547496296296	242.352418518518	242.791881481481	150	0.15	0	3.9
408.28	0.5	39	feedback	390	1	244.547496296296	242.352418518518	242.791881481481	150	0.15	0	3.9
415.964	4.00999999999999	40	valuation	459	1	251.689855555556	242.902355555556	224.653437037037	250	12.75	5.75	105
419.974	0.662000000000035	40	rating	459	1	251.689855555556	242.902355555556	224.653437037037	250	12.75	5.75	105
420.636	0	40	response	459	1	251.689855555556	242.902355555556	224.653437037037	250	12.75	5.75	105
420.636	0.5	40	feedback	459	1	251.689855555556	242.902355555556	224.653437037037	250	12.75	5.75	105
427.17	4.005	41	valuation	14	3	243.826225925926	236.627544444445	222.833840740741	89	4.806	17.8	44.5
431.175	1.24899999999997	41	rating	14	3	243.826225925926	236.627544444445	222.833840740741	89	4.806	17.8	44.5
432.424	0	41	response	14	3	243.826225925926	236.627544444445	222.833840740741	89	4.806	17.8	44.5
432.424	0.5	41	feedback	14	3	243.826225925926	236.627544444445	222.833840740741	89	4.806	17.8	44.5
440.501	4.00400000000002	42	valuation	109	2	228.630974074074	211.481348148148	167.359840740741	50	14	23.5	5.5
444.505	0.572999999999979	42	rating	109	2	228.630974074074	211.481348148148	167.359840740741	50	14	23.5	5.5
445.078	0	42	response	109	2	228.630974074074	211.481348148148	167.359840740741	50	14	23.5	5.5
445.078	0.5	42	feedback	109	2	228.630974074074	211.481348148148	167.359840740741	50	14	23.5	5.5
448.3	4.00599999999997	43	valuation	370	1	219.75152962963	220.928407407407	198.357281481481	120	3.888	0.6	13.8
452.306	0.487000000000023	43	rating	370	1	219.75152962963	220.928407407407	198.357281481481	120	3.888	0.6	13.8
452.793	0	43	response	370	1	219.75152962963	220.928407407407	198.357281481481	120	3.888	0.6	13.8
452.793	0.5	43	feedback	370	1	219.75152962963	220.928407407407	198.357281481481	120	3.888	0.6	13.8
457.801	4.005	44	valuation	294	2	238.324011111111	234.670525925926	224.783814814815	5	0.385	0.9	2.75
461.806	1.334	44	rating	294	2	238.324011111111	234.670525925926	224.783814814815	5	0.385	0.9	2.75
463.14	0	44	response	294	2	238.324011111111	234.670525925926	224.783814814815	5	0.385	0.9	2.75
463.14	0.5	44	feedback	294	2	238.324011111111	234.670525925926	224.783814814815	5	0.385	0.9	2.75
465.975	4.00399999999996	45	valuation	386	1	237.719740740741	229.815822222222	191.553751851852	350	1.295	0.245	6.055
469.979	0.504000000000019	45	rating	386	1	237.719740740741	229.815822222222	191.553751851852	350	1.295	0.245	6.055
470.483	0	45	response	386	1	237.719740740741	229.815822222222	191.553751851852	350	1.295	0.245	6.055
470.483	0.5	45	feedback	386	1	237.719740740741	229.815822222222	191.553751851852	350	1.295	0.245	6.055
474.465	4.00400000000002	46	valuation	173	3	238.459222222222	234.629877777778	232.747222222222	31.5	3.15	10.71	16.695
478.469	0.661000000000001	46	rating	173	3	238.459222222222	234.629877777778	232.747222222222	31.5	3.15	10.71	16.695
479.13	0	46	response	173	3	238.459222222222	234.629877777778	232.747222222222	31.5	3.15	10.71	16.695
479.13	0.5	46	feedback	173	3	238.459222222222	234.629877777778	232.747222222222	31.5	3.15	10.71	16.695
487.069	4.00899999999996	47	valuation	145	3	231.567696296296	210.477440740741	191.054633333333	350	19.95	17.85	45.5
491.078	0.88900000000001	47	rating	145	3	231.567696296296	210.477440740741	191.054633333333	350	19.95	17.85	45.5
491.967	0	47	response	145	3	231.567696296296	210.477440740741	191.054633333333	350	19.95	17.85	45.5
491.967	0.5	47	feedback	145	3	231.567696296296	210.477440740741	191.054633333333	350	19.95	17.85	45.5
498.378	4.00400000000002	48	valuation	397	3	205.286366666667	197.069281481481	197.402355555556	200	1.4	0.6	31.2
502.382	1.60899999999998	48	rating	397	3	205.286366666667	197.069281481481	197.402355555556	200	1.4	0.6	31.2
503.991	0	48	response	397	3	205.286366666667	197.069281481481	197.402355555556	200	1.4	0.6	31.2
503.991	0.5	48	feedback	397	3	205.286366666667	197.069281481481	197.402355555556	200	1.4	0.6	31.2
