onset	duration	trial_id	trial_type	image_id	rating_value	red	green	blue	gram	protein	fat	carb
10.066	4.015	1	valuation	83	4	221.303485185185	211.5066	207.337811111111	60	6	19.5	25.5
14.081	0.584	1	rating	83	4	221.303485185185	211.5066	207.337811111111	60	6	19.5	25.5
14.665	0	1	response	83	4	221.303485185185	211.5066	207.337811111111	60	6	19.5	25.5
14.665	0.5	1	feedback	83	4	221.303485185185	211.5066	207.337811111111	60	6	19.5	25.5
22.866	4.005	2	valuation	360	1	203.668714814815	205.322677777778	167.156540740741	250	5	0.3	6.5
26.871	0.572000000000003	2	rating	360	1	203.668714814815	205.322677777778	167.156540740741	250	5	0.3	6.5
27.443	0	2	response	360	1	203.668714814815	205.322677777778	167.156540740741	250	5	0.3	6.5
27.443	0.5	2	feedback	360	1	203.668714814815	205.322677777778	167.156540740741	250	5	0.3	6.5
31.207	4.006	3	valuation	60	3	233.02332962963	218.918403703704	196.226703703704	220	8.25	37.488	75.009
35.213	0.609999999999999	3	rating	60	3	233.02332962963	218.918403703704	196.226703703704	220	8.25	37.488	75.009
35.823	0	3	response	60	3	233.02332962963	218.918403703704	196.226703703704	220	8.25	37.488	75.009
35.823	0.5	3	feedback	60	3	233.02332962963	218.918403703704	196.226703703704	220	8.25	37.488	75.009
42.578	4.003	4	valuation	504	3	237.865848148148	215.573244444445	178.105	10	0.57	3.07	5.73
46.581	1.24299999999999	4	rating	504	3	237.865848148148	215.573244444445	178.105	10	0.57	3.07	5.73
47.824	0	4	response	504	3	237.865848148148	215.573244444445	178.105	10	0.57	3.07	5.73
47.824	0.5	4	feedback	504	3	237.865848148148	215.573244444445	178.105	10	0.57	3.07	5.73
54.71	4.005	5	valuation	105	3	231.943188888889	211.231074074074	190.760774074074	50	2.55	5.8	34.1
58.715	1.025	5	rating	105	3	231.943188888889	211.231074074074	190.760774074074	50	2.55	5.8	34.1
59.74	0	5	response	105	3	231.943188888889	211.231074074074	190.760774074074	50	2.55	5.8	34.1
59.74	0.5	5	feedback	105	3	231.943188888889	211.231074074074	190.760774074074	50	2.55	5.8	34.1
65.845	4.008	6	valuation	374	4	229.180462962963	210.759655555556	188.154422222222	65	4.03	8.775	29.77
69.853	1.10300000000001	6	rating	374	4	229.180462962963	210.759655555556	188.154422222222	65	4.03	8.775	29.77
70.956	0	6	response	374	4	229.180462962963	210.759655555556	188.154422222222	65	4.03	8.775	29.77
70.956	0.5	6	feedback	374	4	229.180462962963	210.759655555556	188.154422222222	65	4.03	8.775	29.77
77.191	4.005	7	valuation	56	3	230.325433333333	221.73747037037	215.9782	150	6	16.005	40.005
81.196	0.816000000000003	7	rating	56	3	230.325433333333	221.73747037037	215.9782	150	6	16.005	40.005
82.012	0	7	response	56	3	230.325433333333	221.73747037037	215.9782	150	6	16.005	40.005
82.012	0.5	7	feedback	56	3	230.325433333333	221.73747037037	215.9782	150	6	16.005	40.005
87.592	4.005	8	valuation	343	2	237.573185185185	218.0677	200.734255555556	840	110.04	94.08	5.04
91.597	2.15400000000001	8	rating	343	2	237.573185185185	218.0677	200.734255555556	840	110.04	94.08	5.04
93.751	0	8	response	343	2	237.573185185185	218.0677	200.734255555556	840	110.04	94.08	5.04
93.751	0.5	8	feedback	343	2	237.573185185185	218.0677	200.734255555556	840	110.04	94.08	5.04
100.114	4.00399999999999	9	valuation	512	3	232.360025925926	221.404796296296	206.864848148148	31	5.0003	0.7998	7.6012
104.118	1.23700000000001	9	rating	512	3	232.360025925926	221.404796296296	206.864848148148	31	5.0003	0.7998	7.6012
105.355	0	9	response	512	3	232.360025925926	221.404796296296	206.864848148148	31	5.0003	0.7998	7.6012
105.355	0.5	9	feedback	512	3	232.360025925926	221.404796296296	206.864848148148	31	5.0003	0.7998	7.6012
111.325	4.005	10	valuation	279	4	241.263014814815	240.356188888889	238.881318518519	65	3.38	1.105	18.785
115.33	0.503	10	rating	279	4	241.263014814815	240.356188888889	238.881318518519	65	3.38	1.105	18.785
115.833	0	10	response	279	4	241.263014814815	240.356188888889	238.881318518519	65	3.38	1.105	18.785
115.833	0.5	10	feedback	279	4	241.263014814815	240.356188888889	238.881318518519	65	3.38	1.105	18.785
118.675	4.00500000000001	11	valuation	132	3	233.748444444444	222.715862962963	197.658111111111	350	101.5	105	0
122.68	1.17699999999999	11	rating	132	3	233.748444444444	222.715862962963	197.658111111111	350	101.5	105	0
123.857	0	11	response	132	3	233.748444444444	222.715862962963	197.658111111111	350	101.5	105	0
123.857	0.5	11	feedback	132	3	233.748444444444	222.715862962963	197.658111111111	350	101.5	105	0
132.436	4.00799999999998	12	valuation	314	3	233.865662962963	212.069914814815	199.556859259259	320	20.48	5.184	33.824
136.444	1.04300000000001	12	rating	314	3	233.865662962963	212.069914814815	199.556859259259	320	20.48	5.184	33.824
137.487	0	12	response	314	3	233.865662962963	212.069914814815	199.556859259259	320	20.48	5.184	33.824
137.487	0.5	12	feedback	314	3	233.865662962963	212.069914814815	199.556859259259	320	20.48	5.184	33.824
141.11	4.00299999999999	13	valuation	218	2	216.072659259259	201.749744444444	192.279251851852	590	5.9	1.18	62.363
145.113	0.532000000000011	13	rating	218	2	216.072659259259	201.749744444444	192.279251851852	590	5.9	1.18	62.363
145.645	0	13	response	218	2	216.072659259259	201.749744444444	192.279251851852	590	5.9	1.18	62.363
145.645	0.5	13	feedback	218	2	216.072659259259	201.749744444444	192.279251851852	590	5.9	1.18	62.363
154.098	4.00899999999999	14	valuation	219	3	236.940559259259	234.579051851852	223.992881481481	300	5.19	1.05	10.5
158.107	0.75200000000001	14	rating	219	3	236.940559259259	234.579051851852	223.992881481481	300	5.19	1.05	10.5
158.859	0	14	response	219	3	236.940559259259	234.579051851852	223.992881481481	300	5.19	1.05	10.5
158.859	0.5	14	feedback	219	3	236.940559259259	234.579051851852	223.992881481481	300	5.19	1.05	10.5
166.135	4.005	15	valuation	359	2	235.124337037037	234.318940740741	220.059733333333	1000	13.3	1	14.3
170.14	1.096	15	rating	359	2	235.124337037037	234.318940740741	220.059733333333	1000	13.3	1	14.3
171.236	0	15	response	359	2	235.124337037037	234.318940740741	220.059733333333	1000	13.3	1	14.3
171.236	0.5	15	feedback	359	2	235.124337037037	234.318940740741	220.059733333333	1000	13.3	1	14.3
175.513	4.005	16	valuation	385	4	245.082577777778	237.646314814815	222.607103703704	250	10.25	5.25	82.5
179.518	1.24099999999999	16	rating	385	4	245.082577777778	237.646314814815	222.607103703704	250	10.25	5.25	82.5
180.759	0	16	response	385	4	245.082577777778	237.646314814815	222.607103703704	250	10.25	5.25	82.5
180.759	0.5	16	feedback	385	4	245.082577777778	237.646314814815	222.607103703704	250	10.25	5.25	82.5
183.34	4.006	17	valuation	268	2	236.044296296296	239.224655555556	218.502122222222	536	6.968	0.3752	12.864
187.346	0.981999999999999	17	rating	268	2	236.044296296296	239.224655555556	218.502122222222	536	6.968	0.3752	12.864
188.328	0	17	response	268	2	236.044296296296	239.224655555556	218.502122222222	536	6.968	0.3752	12.864
188.328	0.5	17	feedback	268	2	236.044296296296	239.224655555556	218.502122222222	536	6.968	0.3752	12.864
195.475	4.00900000000001	18	valuation	493	3	214.18657037037	193.589940740741	182.915685185185	590	50.917	66.434	109.504
199.484	0.495999999999981	18	rating	493	3	214.18657037037	193.589940740741	182.915685185185	590	50.917	66.434	109.504
199.98	0	18	response	493	3	214.18657037037	193.589940740741	182.915685185185	590	50.917	66.434	109.504
199.98	0.5	18	feedback	493	3	214.18657037037	193.589940740741	182.915685185185	590	50.917	66.434	109.504
206.733	4.00299999999999	19	valuation	152	2	232.926840740741	205.275440740741	169.15117037037	20	2.6	4.8	11.2
210.736	0.756	19	rating	152	2	232.926840740741	205.275440740741	169.15117037037	20	2.6	4.8	11.2
211.492	0	19	response	152	2	232.926840740741	205.275440740741	169.15117037037	20	2.6	4.8	11.2
211.492	0.5	19	feedback	152	2	232.926840740741	205.275440740741	169.15117037037	20	2.6	4.8	11.2
215.642	4.00399999999999	20	valuation	452	2	236.400237037037	207.367988888889	195.907403703704	1800	10.8	3.6	149.04
219.646	1.15400000000002	20	rating	452	2	236.400237037037	207.367988888889	195.907403703704	1800	10.8	3.6	149.04
220.8	0	20	response	452	2	236.400237037037	207.367988888889	195.907403703704	1800	10.8	3.6	149.04
220.8	0.5	20	feedback	452	2	236.400237037037	207.367988888889	195.907403703704	1800	10.8	3.6	149.04
224.035	4.005	21	valuation	426	4	223.031248148148	199.428640740741	181.220877777778	900	73.8	10.8	439.2
228.04	0.643000000000001	21	rating	426	4	223.031248148148	199.428640740741	181.220877777778	900	73.8	10.8	439.2
228.683	0	21	response	426	4	223.031248148148	199.428640740741	181.220877777778	900	73.8	10.8	439.2
228.683	0.5	21	feedback	426	4	223.031248148148	199.428640740741	181.220877777778	900	73.8	10.8	439.2
231.788	4.006	22	valuation	471	3	237.820407407407	225.39417037037	215.471785185185	408	24.2352	33.2928	138.7608
235.794	0.697000000000003	22	rating	471	3	237.820407407407	225.39417037037	215.471785185185	408	24.2352	33.2928	138.7608
236.491	0	22	response	471	3	237.820407407407	225.39417037037	215.471785185185	408	24.2352	33.2928	138.7608
236.491	0.5	22	feedback	471	3	237.820407407407	225.39417037037	215.471785185185	408	24.2352	33.2928	138.7608
244.289	4.00500000000002	23	valuation	61	3	217.738881481481	194.702925925926	183.2717	550	36.025	31.02	116.985
248.294	1.06799999999998	23	rating	61	3	217.738881481481	194.702925925926	183.2717	550	36.025	31.02	116.985
249.362	0	23	response	61	3	217.738881481481	194.702925925926	183.2717	550	36.025	31.02	116.985
249.362	0.5	23	feedback	61	3	217.738881481481	194.702925925926	183.2717	550	36.025	31.02	116.985
253.768	4.00500000000002	24	valuation	130	3	239.940644444444	234.521937037037	224.427055555556	120	6	21.6	72
257.773	1.07599999999996	24	rating	130	3	239.940644444444	234.521937037037	224.427055555556	120	6	21.6	72
258.849	0	24	response	130	3	239.940644444444	234.521937037037	224.427055555556	120	6	21.6	72
258.849	0.5	24	feedback	130	3	239.940644444444	234.521937037037	224.427055555556	120	6	21.6	72
264.689	4.00299999999999	25	valuation	125	3	233.642818518518	233.168048148148	226.704066666667	250	2.5	0.75	237.5
268.692	0.322000000000003	25	rating	125	3	233.642818518518	233.168048148148	226.704066666667	250	2.5	0.75	237.5
269.014	0	25	response	125	3	233.642818518518	233.168048148148	226.704066666667	250	2.5	0.75	237.5
269.014	0.5	25	feedback	125	3	233.642818518518	233.168048148148	226.704066666667	250	2.5	0.75	237.5
274.2	4.005	26	valuation	4	4	241.6334	235.246888888889	224.08042962963	19	1.178	4.94	11.97
278.205	0.535000000000025	26	rating	4	4	241.6334	235.246888888889	224.08042962963	19	1.178	4.94	11.97
278.74	0	26	response	4	4	241.6334	235.246888888889	224.08042962963	19	1.178	4.94	11.97
278.74	0.5	26	feedback	4	4	241.6334	235.246888888889	224.08042962963	19	1.178	4.94	11.97
283.671	6.50600000000003	27	miss	233	0	229.463418518519	202.517385185185	195.26052962963	650	5.85	1.3	16.055
295.108	4.005	28	valuation	45	3	206.768825925926	193.444144444444	168.1402	250	25.975	24.875	62.525
299.113	1.72199999999998	28	rating	45	3	206.768825925926	193.444144444444	168.1402	250	25.975	24.875	62.525
300.835	0	28	response	45	3	206.768825925926	193.444144444444	168.1402	250	25.975	24.875	62.525
300.835	0.5	28	feedback	45	3	206.768825925926	193.444144444444	168.1402	250	25.975	24.875	62.525
306.156	4.005	29	valuation	151	3	241.193903703704	224.897437037037	187.470951851852	150	7.95	34.5	78
310.161	0.54000000000002	29	rating	151	3	241.193903703704	224.897437037037	187.470951851852	150	7.95	34.5	78
310.701	0	29	response	151	3	241.193903703704	224.897437037037	187.470951851852	150	7.95	34.5	78
310.701	0.5	29	feedback	151	3	241.193903703704	224.897437037037	187.470951851852	150	7.95	34.5	78
317.196	4.005	30	valuation	414	1	232.920707407407	229.204237037037	206.009507407407	80	1.744	0.192	5.6
321.201	0.513999999999953	30	rating	414	1	232.920707407407	229.204237037037	206.009507407407	80	1.744	0.192	5.6
321.715	0	30	response	414	1	232.920707407407	229.204237037037	206.009507407407	80	1.744	0.192	5.6
321.715	0.5	30	feedback	414	1	232.920707407407	229.204237037037	206.009507407407	80	1.744	0.192	5.6
329.644	4.00400000000002	31	valuation	346	2	228.343103703704	197.327307407407	175.748781481482	600	12	0.66	88.8
333.648	0.504999999999995	31	rating	346	2	228.343103703704	197.327307407407	175.748781481482	600	12	0.66	88.8
334.153	0	31	response	346	2	228.343103703704	197.327307407407	175.748781481482	600	12	0.66	88.8
334.153	0.5	31	feedback	346	2	228.343103703704	197.327307407407	175.748781481482	600	12	0.66	88.8
337.521	4.005	32	valuation	544	2	250.596337037037	210.284177777778	204.014044444444	150	29.4	9	0.15
341.526	0.618999999999971	32	rating	544	2	250.596337037037	210.284177777778	204.014044444444	150	29.4	9	0.15
342.145	0	32	response	544	2	250.596337037037	210.284177777778	204.014044444444	150	29.4	9	0.15
342.145	0.5	32	feedback	544	2	250.596337037037	210.284177777778	204.014044444444	150	29.4	9	0.15
344.86	4.005	33	valuation	183	2	246.500262962963	230.846933333333	212.079162962963	75	18.75	37.5	10.5
348.865	0.659999999999968	33	rating	183	2	246.500262962963	230.846933333333	212.079162962963	75	18.75	37.5	10.5
349.525	0	33	response	183	2	246.500262962963	230.846933333333	212.079162962963	75	18.75	37.5	10.5
349.525	0.5	33	feedback	183	2	246.500262962963	230.846933333333	212.079162962963	75	18.75	37.5	10.5
354.067	4.00400000000002	34	valuation	37	3	224.732359259259	204.957048148148	188.700111111111	250	13.475	9.925	46.775
358.071	0.60899999999998	34	rating	37	3	224.732359259259	204.957048148148	188.700111111111	250	13.475	9.925	46.775
358.68	0	34	response	37	3	224.732359259259	204.957048148148	188.700111111111	250	13.475	9.925	46.775
358.68	0.5	34	feedback	37	3	224.732359259259	204.957048148148	188.700111111111	250	13.475	9.925	46.775
364.39	4.00600000000003	35	valuation	489	3	230.767925925926	204.154307407407	191.285288888889	350	35	42	56
368.396	0.526999999999987	35	rating	489	3	230.767925925926	204.154307407407	191.285288888889	350	35	42	56
368.923	0	35	response	489	3	230.767925925926	204.154307407407	191.285288888889	350	35	42	56
368.923	0.5	35	feedback	489	3	230.767925925926	204.154307407407	191.285288888889	350	35	42	56
377.24	4.00999999999999	36	valuation	202	2	200.061351851852	199.171555555556	199.325985185185	50	0.3	0.3	3.65
381.25	0.574999999999989	36	rating	202	2	200.061351851852	199.171555555556	199.325985185185	50	0.3	0.3	3.65
381.825	0	36	response	202	2	200.061351851852	199.171555555556	199.325985185185	50	0.3	0.3	3.65
381.825	0.5	36	feedback	202	2	200.061351851852	199.171555555556	199.325985185185	50	0.3	0.3	3.65
388.844	4.00299999999999	37	valuation	96	3	223.744855555556	208.222059259259	190.899051851852	500	29.5	105	260
392.847	0.927999999999997	37	rating	96	3	223.744855555556	208.222059259259	190.899051851852	500	29.5	105	260
393.775	0	37	response	96	3	223.744855555556	208.222059259259	190.899051851852	500	29.5	105	260
393.775	0.5	37	feedback	96	3	223.744855555556	208.222059259259	190.899051851852	500	29.5	105	260
401.181	4.00400000000002	38	valuation	405	2	225.487281481482	228.002303703704	203.845462962963	300	6	0.6	3
405.185	1.55700000000002	38	rating	405	2	225.487281481482	228.002303703704	203.845462962963	300	6	0.6	3
406.742	0	38	response	405	2	225.487281481482	228.002303703704	203.845462962963	300	6	0.6	3
406.742	0.5	38	feedback	405	2	225.487281481482	228.002303703704	203.845462962963	300	6	0.6	3
410.768	4.00500000000005	39	valuation	237	2	244.841388888889	243.758411111111	238.652048148148	350	31.15	35	13.3
414.773	0.81699999999995	39	rating	237	2	244.841388888889	243.758411111111	238.652048148148	350	31.15	35	13.3
415.59	0	39	response	237	2	244.841388888889	243.758411111111	238.652048148148	350	31.15	35	13.3
415.59	0.5	39	feedback	237	2	244.841388888889	243.758411111111	238.652048148148	350	31.15	35	13.3
419.083	4.005	40	valuation	59	3	212.601351851852	198.902051851852	181.707014814815	1200	34.8	93.6	448.8
423.088	0.649999999999977	40	rating	59	3	212.601351851852	198.902051851852	181.707014814815	1200	34.8	93.6	448.8
423.738	0	40	response	59	3	212.601351851852	198.902051851852	181.707014814815	1200	34.8	93.6	448.8
423.738	0.5	40	feedback	59	3	212.601351851852	198.902051851852	181.707014814815	1200	34.8	93.6	448.8
426.713	4.00599999999997	41	valuation	114	4	240.337251851852	222.546277777778	206.624785185185	150	7.8	28.2	53.85
430.719	0.507999999999981	41	rating	114	4	240.337251851852	222.546277777778	206.624785185185	150	7.8	28.2	53.85
431.227	0	41	response	114	4	240.337251851852	222.546277777778	206.624785185185	150	7.8	28.2	53.85
431.227	0.5	41	feedback	114	4	240.337251851852	222.546277777778	206.624785185185	150	7.8	28.2	53.85
438.759	4.00999999999999	42	valuation	239	2	238.285944444444	218.642877777778	197.982814814815	600	7.32	2.22	29.22
442.769	0.964999999999975	42	rating	239	2	238.285944444444	218.642877777778	197.982814814815	600	7.32	2.22	29.22
443.734	0	42	response	239	2	238.285944444444	218.642877777778	197.982814814815	600	7.32	2.22	29.22
443.734	0.5	42	feedback	239	2	238.285944444444	218.642877777778	197.982814814815	600	7.32	2.22	29.22
448.407	4.00600000000003	43	valuation	246	1	223.636533333333	195.611785185185	185.338881481481	500	6.5	2.5	32
452.413	0.642999999999972	43	rating	246	1	223.636533333333	195.611785185185	185.338881481481	500	6.5	2.5	32
453.056	0	43	response	246	1	223.636533333333	195.611785185185	185.338881481481	500	6.5	2.5	32
453.056	0.5	43	feedback	246	1	223.636533333333	195.611785185185	185.338881481481	500	6.5	2.5	32
456.94	4.005	44	valuation	196	2	206.006196296296	197.354396296296	175.3604	150	2.595	0.525	5.25
460.945	0.545000000000016	44	rating	196	2	206.006196296296	197.354396296296	175.3604	150	2.595	0.525	5.25
461.49	0	44	response	196	2	206.006196296296	197.354396296296	175.3604	150	2.595	0.525	5.25
461.49	0.5	44	feedback	196	2	206.006196296296	197.354396296296	175.3604	150	2.595	0.525	5.25
466.554	4.00400000000002	45	valuation	500	3	224.335777777778	210.903914814815	203.253496296296	15	1.035	5.175	7.68
470.558	0.918999999999983	45	rating	500	3	224.335777777778	210.903914814815	203.253496296296	15	1.035	5.175	7.68
471.477	0	45	response	500	3	224.335777777778	210.903914814815	203.253496296296	15	1.035	5.175	7.68
471.477	0.5	45	feedback	500	3	224.335777777778	210.903914814815	203.253496296296	15	1.035	5.175	7.68
476.276	4.00399999999996	46	valuation	419	3	243.592155555556	224.027522222222	209.668392592593	700	27.3	89.6	238.7
480.28	1.00700000000001	46	rating	419	3	243.592155555556	224.027522222222	209.668392592593	700	27.3	89.6	238.7
481.287	0	46	response	419	3	243.592155555556	224.027522222222	209.668392592593	700	27.3	89.6	238.7
481.287	0.5	46	feedback	419	3	243.592155555556	224.027522222222	209.668392592593	700	27.3	89.6	238.7
488.953	4.01000000000005	47	valuation	206	2	234.499233333333	210.575355555556	207.224118518518	100	1.2	0.3	4.6
492.963	1.404	47	rating	206	2	234.499233333333	210.575355555556	207.224118518518	100	1.2	0.3	4.6
494.367	0	47	response	206	2	234.499233333333	210.575355555556	207.224118518518	100	1.2	0.3	4.6
494.367	0.5	47	feedback	206	2	234.499233333333	210.575355555556	207.224118518518	100	1.2	0.3	4.6
