onset	duration	trial_id	trial_type	image_id	rating_value	red	green	blue	gram	protein	fat	carb
10.039	4.005	1	valuation	397	3	205.286366666667	197.069281481481	197.402355555556	200	1.4	0.6	31.2
14.044	1.184	1	rating	397	3	205.286366666667	197.069281481481	197.402355555556	200	1.4	0.6	31.2
15.228	0	1	response	397	3	205.286366666667	197.069281481481	197.402355555556	200	1.4	0.6	31.2
15.228	0.5	1	feedback	397	3	205.286366666667	197.069281481481	197.402355555556	200	1.4	0.6	31.2
21.627	6.505	2	miss	343	0	237.573185185185	218.0677	200.734255555556	840	110.04	94.08	5.04
32.321	4.005	3	valuation	420	2	220.88892962963	161.62427037037	161.309348148148	800	24.8	84.8	225.6
36.326	1.315	3	rating	420	2	220.88892962963	161.62427037037	161.309348148148	800	24.8	84.8	225.6
37.641	0	3	response	420	2	220.88892962963	161.62427037037	161.309348148148	800	24.8	84.8	225.6
37.641	0.5	3	feedback	420	2	220.88892962963	161.62427037037	161.309348148148	800	24.8	84.8	225.6
41.108	4.003	4	valuation	86	4	236.011966666667	220.893862962963	200.992777777778	286	30.316	35.8072	50.9938
45.111	1.46700000000001	4	rating	86	4	236.011966666667	220.893862962963	200.992777777778	286	30.316	35.8072	50.9938
46.578	0	4	response	86	4	236.011966666667	220.893862962963	200.992777777778	286	30.316	35.8072	50.9938
46.578	0.5	4	feedback	86	4	236.011966666667	220.893862962963	200.992777777778	286	30.316	35.8072	50.9938
54.013	4.018	5	valuation	388	2	251.513644444444	251.240011111111	248.662714814815	150	0.15	0	3.9
58.031	1.706	5	rating	388	2	251.513644444444	251.240011111111	248.662714814815	150	0.15	0	3.9
59.737	0	5	response	388	2	251.513644444444	251.240011111111	248.662714814815	150	0.15	0	3.9
59.737	0.5	5	feedback	388	2	251.513644444444	251.240011111111	248.662714814815	150	0.15	0	3.9
63.06	4.005	6	valuation	341	3	243.643766666667	235.343803703704	207.559322222222	396	4.554	0.7128	84.7044
67.065	0.972999999999999	6	rating	341	3	243.643766666667	235.343803703704	207.559322222222	396	4.554	0.7128	84.7044
68.038	0	6	response	341	3	243.643766666667	235.343803703704	207.559322222222	396	4.554	0.7128	84.7044
68.038	0.5	6	feedback	341	3	243.643766666667	235.343803703704	207.559322222222	396	4.554	0.7128	84.7044
75.551	4.009	7	valuation	309	3	239.528037037037	219.687762962963	199.263762962963	300	54	22.83	51.9
79.56	0.781999999999996	7	rating	309	3	239.528037037037	219.687762962963	199.263762962963	300	54	22.83	51.9
80.342	0	7	response	309	3	239.528037037037	219.687762962963	199.263762962963	300	54	22.83	51.9
80.342	0.5	7	feedback	309	3	239.528037037037	219.687762962963	199.263762962963	300	54	22.83	51.9
88.238	4.004	8	valuation	105	3	231.943188888889	211.231074074074	190.760774074074	50	2.55	5.8	34.1
92.242	2.056	8	rating	105	3	231.943188888889	211.231074074074	190.760774074074	50	2.55	5.8	34.1
94.298	0	8	response	105	3	231.943188888889	211.231074074074	190.760774074074	50	2.55	5.8	34.1
94.298	0.5	8	feedback	105	3	231.943188888889	211.231074074074	190.760774074074	50	2.55	5.8	34.1
102.726	4.008	9	valuation	545	3	254.098211111111	226.505422222222	206.901403703704	5	0.945	0.0755	0.039
106.734	1.834	9	rating	545	3	254.098211111111	226.505422222222	206.901403703704	5	0.945	0.0755	0.039
108.568	0	9	response	545	3	254.098211111111	226.505422222222	206.901403703704	5	0.945	0.0755	0.039
108.568	0.5	9	feedback	545	3	254.098211111111	226.505422222222	206.901403703704	5	0.945	0.0755	0.039
112.507	4.005	10	valuation	405	2	225.487281481482	228.002303703704	203.845462962963	300	6	0.6	3
116.512	1.67400000000001	10	rating	405	2	225.487281481482	228.002303703704	203.845462962963	300	6	0.6	3
118.186	0	10	response	405	2	225.487281481482	228.002303703704	203.845462962963	300	6	0.6	3
118.186	0.5	10	feedback	405	2	225.487281481482	228.002303703704	203.845462962963	300	6	0.6	3
126.341	4.00600000000001	11	valuation	130	2	239.940644444444	234.521937037037	224.427055555556	120	6	21.6	72
130.347	1.215	11	rating	130	2	239.940644444444	234.521937037037	224.427055555556	120	6	21.6	72
131.562	0	11	response	130	2	239.940644444444	234.521937037037	224.427055555556	120	6	21.6	72
131.562	0.5	11	feedback	130	2	239.940644444444	234.521937037037	224.427055555556	120	6	21.6	72
136.434	4.00700000000001	12	valuation	448	1	219.915374074074	211.722248148148	200.2025	180	1.89	0.252	3.834
140.441	1.50299999999999	12	rating	448	1	219.915374074074	211.722248148148	200.2025	180	1.89	0.252	3.834
141.944	0	12	response	448	1	219.915374074074	211.722248148148	200.2025	180	1.89	0.252	3.834
141.944	0.5	12	feedback	448	1	219.915374074074	211.722248148148	200.2025	180	1.89	0.252	3.834
144.76	4.00300000000001	13	valuation	544	2	250.596337037037	210.284177777778	204.014044444444	150	29.4	9	0.15
148.763	2.04300000000001	13	rating	544	2	250.596337037037	210.284177777778	204.014044444444	150	29.4	9	0.15
150.806	0	13	response	544	2	250.596337037037	210.284177777778	204.014044444444	150	29.4	9	0.15
150.806	0.5	13	feedback	544	2	250.596337037037	210.284177777778	204.014044444444	150	29.4	9	0.15
153.513	4.01399999999998	14	valuation	302	2	247.920840740741	207.924792592593	173.305907407407	180	25.2	15.804	25.38
157.527	1.57500000000002	14	rating	302	2	247.920840740741	207.924792592593	173.305907407407	180	25.2	15.804	25.38
159.102	0	14	response	302	2	247.920840740741	207.924792592593	173.305907407407	180	25.2	15.804	25.38
159.102	0.5	14	feedback	302	2	247.920840740741	207.924792592593	173.305907407407	180	25.2	15.804	25.38
161.668	4.00399999999999	15	valuation	426	2	223.031248148148	199.428640740741	181.220877777778	900	73.8	10.8	439.2
165.672	0.569000000000017	15	rating	426	2	223.031248148148	199.428640740741	181.220877777778	900	73.8	10.8	439.2
166.241	0	15	response	426	2	223.031248148148	199.428640740741	181.220877777778	900	73.8	10.8	439.2
166.241	0.5	15	feedback	426	2	223.031248148148	199.428640740741	181.220877777778	900	73.8	10.8	439.2
171.199	4.00299999999999	16	valuation	493	1	214.18657037037	193.589940740741	182.915685185185	590	50.917	66.434	109.504
175.202	1.37299999999999	16	rating	493	1	214.18657037037	193.589940740741	182.915685185185	590	50.917	66.434	109.504
176.575	0	16	response	493	1	214.18657037037	193.589940740741	182.915685185185	590	50.917	66.434	109.504
176.575	0.5	16	feedback	493	1	214.18657037037	193.589940740741	182.915685185185	590	50.917	66.434	109.504
184.636	4.023	17	valuation	237	2	244.841388888889	243.758411111111	238.652048148148	350	31.15	35	13.3
188.659	1.12700000000001	17	rating	237	2	244.841388888889	243.758411111111	238.652048148148	350	31.15	35	13.3
189.786	0	17	response	237	2	244.841388888889	243.758411111111	238.652048148148	350	31.15	35	13.3
189.786	0.5	17	feedback	237	2	244.841388888889	243.758411111111	238.652048148148	350	31.15	35	13.3
192.959	4.00399999999999	18	valuation	244	3	243.162111111111	237.490811111111	230.78427037037	66.7	5.1359	2.5346	53.2266
196.963	1.755	18	rating	244	3	243.162111111111	237.490811111111	230.78427037037	66.7	5.1359	2.5346	53.2266
198.718	0	18	response	244	3	243.162111111111	237.490811111111	230.78427037037	66.7	5.1359	2.5346	53.2266
198.718	0.5	18	feedback	244	3	243.162111111111	237.490811111111	230.78427037037	66.7	5.1359	2.5346	53.2266
205.465	4.00899999999999	19	valuation	472	3	231.892751851852	227.653685185185	221.137677777778	160	3.2	3.2	0.96
209.474	0.890000000000015	19	rating	472	3	231.892751851852	227.653685185185	221.137677777778	160	3.2	3.2	0.96
210.364	0	19	response	472	3	231.892751851852	227.653685185185	221.137677777778	160	3.2	3.2	0.96
210.364	0.5	19	feedback	472	3	231.892751851852	227.653685185185	221.137677777778	160	3.2	3.2	0.96
218.672	4.00399999999999	20	valuation	195	2	242.329581481482	243.653844444444	225.12022962963	11	0.0473	0.0154	0.143
222.676	1.98500000000001	20	rating	195	2	242.329581481482	243.653844444444	225.12022962963	11	0.0473	0.0154	0.143
224.661	0	20	response	195	2	242.329581481482	243.653844444444	225.12022962963	11	0.0473	0.0154	0.143
224.661	0.5	20	feedback	195	2	242.329581481482	243.653844444444	225.12022962963	11	0.0473	0.0154	0.143
230.778	4.018	21	valuation	403	3	230.25037037037	201.999262962963	185.160559259259	350	35	42	56
234.796	0.951999999999998	21	rating	403	3	230.25037037037	201.999262962963	185.160559259259	350	35	42	56
235.748	0	21	response	403	3	230.25037037037	201.999262962963	185.160559259259	350	35	42	56
235.748	0.5	21	feedback	403	3	230.25037037037	201.999262962963	185.160559259259	350	35	42	56
243.007	4.00399999999999	22	valuation	87	4	223.286288888889	209.11392962963	188.684481481482	236	28.32	28.32	33.04
247.011	0.631	22	rating	87	4	223.286288888889	209.11392962963	188.684481481482	236	28.32	28.32	33.04
247.642	0	22	response	87	4	223.286288888889	209.11392962963	188.684481481482	236	28.32	28.32	33.04
247.642	0.5	22	feedback	87	4	223.286288888889	209.11392962963	188.684481481482	236	28.32	28.32	33.04
252.755	4.00400000000002	23	valuation	62	2	231.827648148148	219.497414814815	207.432437037037	70	6.195	2.1	36.33
256.759	1.07499999999999	23	rating	62	2	231.827648148148	219.497414814815	207.432437037037	70	6.195	2.1	36.33
257.834	0	23	response	62	2	231.827648148148	219.497414814815	207.432437037037	70	6.195	2.1	36.33
257.834	0.5	23	feedback	62	2	231.827648148148	219.497414814815	207.432437037037	70	6.195	2.1	36.33
264.863	4.005	24	valuation	517	4	246.386655555556	237.275566666667	210.835722222222	150	40.5	48	0
268.868	1.49700000000001	24	rating	517	4	246.386655555556	237.275566666667	210.835722222222	150	40.5	48	0
270.365	0	24	response	517	4	246.386655555556	237.275566666667	210.835722222222	150	40.5	48	0
270.365	0.5	24	feedback	517	4	246.386655555556	237.275566666667	210.835722222222	150	40.5	48	0
278.022	4.00299999999999	25	valuation	513	2	197.361259259259	198.7587	189.025185185185	20	0.36	4.85	0.79
282.025	1.12	25	rating	513	2	197.361259259259	198.7587	189.025185185185	20	0.36	4.85	0.79
283.145	0	25	response	513	2	197.361259259259	198.7587	189.025185185185	20	0.36	4.85	0.79
283.145	0.5	25	feedback	513	2	197.361259259259	198.7587	189.025185185185	20	0.36	4.85	0.79
288.997	4.00399999999996	26	valuation	34	3	231.769207407407	217.87617037037	204.482866666667	380	74.784	132.392	13.49
293.001	0.770000000000039	26	rating	34	3	231.769207407407	217.87617037037	204.482866666667	380	74.784	132.392	13.49
293.771	0	26	response	34	3	231.769207407407	217.87617037037	204.482866666667	380	74.784	132.392	13.49
293.771	0.5	26	feedback	34	3	231.769207407407	217.87617037037	204.482866666667	380	74.784	132.392	13.49
298.129	4.00399999999996	27	valuation	437	2	227.362862962963	208.736588888889	193.066466666667	800	16	0.88	118.4
302.133	2.32600000000002	27	rating	437	2	227.362862962963	208.736588888889	193.066466666667	800	16	0.88	118.4
304.459	0	27	response	437	2	227.362862962963	208.736588888889	193.066466666667	800	16	0.88	118.4
304.459	0.5	27	feedback	437	2	227.362862962963	208.736588888889	193.066466666667	800	16	0.88	118.4
309.826	4.005	28	valuation	208	2	243.352581481481	230.928885185185	215.165185185185	520	4.16	0.832	20.488
313.831	1.28299999999996	28	rating	208	2	243.352581481481	230.928885185185	215.165185185185	520	4.16	0.832	20.488
315.114	0	28	response	208	2	243.352581481481	230.928885185185	215.165185185185	520	4.16	0.832	20.488
315.114	0.5	28	feedback	208	2	243.352581481481	230.928885185185	215.165185185185	520	4.16	0.832	20.488
318.177	4.00399999999996	29	valuation	215	2	226.313933333333	219.814351851852	192.275048148148	50	0.391	0.073	1.969
322.181	1.67099999999999	29	rating	215	2	226.313933333333	219.814351851852	192.275048148148	50	0.391	0.073	1.969
323.852	0	29	response	215	2	226.313933333333	219.814351851852	192.275048148148	50	0.391	0.073	1.969
323.852	0.5	29	feedback	215	2	226.313933333333	219.814351851852	192.275048148148	50	0.391	0.073	1.969
328.046	4.00400000000002	30	valuation	307	3	243.524525925926	231.736444444444	217.999248148148	125	25	11.9625	1.625
332.05	2.137	30	rating	307	3	243.524525925926	231.736444444444	217.999248148148	125	25	11.9625	1.625
334.187	0	30	response	307	3	243.524525925926	231.736444444444	217.999248148148	125	25	11.9625	1.625
334.187	0.5	30	feedback	307	3	243.524525925926	231.736444444444	217.999248148148	125	25	11.9625	1.625
341.062	4.00799999999998	31	valuation	149	2	225.942218518519	180.648325925926	148.457092592593	70	10.5	23.1	28
345.07	2.09500000000003	31	rating	149	2	225.942218518519	180.648325925926	148.457092592593	70	10.5	23.1	28
347.165	0	31	response	149	2	225.942218518519	180.648325925926	148.457092592593	70	10.5	23.1	28
347.165	0.5	31	feedback	149	2	225.942218518519	180.648325925926	148.457092592593	70	10.5	23.1	28
351.273	4.00399999999996	32	valuation	2	2	224.223055555555	209.635125925926	185.501751851852	360	54	54	50.4
355.277	1.71899999999999	32	rating	2	2	224.223055555555	209.635125925926	185.501751851852	360	54	54	50.4
356.996	0	32	response	2	2	224.223055555555	209.635125925926	185.501751851852	360	54	54	50.4
356.996	0.5	32	feedback	2	2	224.223055555555	209.635125925926	185.501751851852	360	54	54	50.4
361.62	4.02199999999999	33	valuation	558	2	228.833588888889	226.905788888889	218.695348148148	560	6.72	4.144	11.2
365.642	1.96800000000002	33	rating	558	2	228.833588888889	226.905788888889	218.695348148148	560	6.72	4.144	11.2
367.61	0	33	response	558	2	228.833588888889	226.905788888889	218.695348148148	560	6.72	4.144	11.2
367.61	0.5	33	feedback	558	2	228.833588888889	226.905788888889	218.695348148148	560	6.72	4.144	11.2
374.765	4.00400000000002	34	valuation	323	3	228.088137037037	220.723218518519	203.94212962963	377	54.0995	22.0168	19.4909
378.769	0.94599999999997	34	rating	323	3	228.088137037037	220.723218518519	203.94212962963	377	54.0995	22.0168	19.4909
379.715	0	34	response	323	3	228.088137037037	220.723218518519	203.94212962963	377	54.0995	22.0168	19.4909
379.715	0.5	34	feedback	323	3	228.088137037037	220.723218518519	203.94212962963	377	54.0995	22.0168	19.4909
385.211	4.00399999999996	35	valuation	553	2	233.132855555556	207.314462962963	194.290892592593	700	105	63	14
389.215	1.803	35	rating	553	2	233.132855555556	207.314462962963	194.290892592593	700	105	63	14
391.018	0	35	response	553	2	233.132855555556	207.314462962963	194.290892592593	700	105	63	14
391.018	0.5	35	feedback	553	2	233.132855555556	207.314462962963	194.290892592593	700	105	63	14
396.778	4.005	36	valuation	159	2	197.329748148148	181.536988888889	176.506477777778	48	2.64	15.888	21.84
400.783	1.197	36	rating	159	2	197.329748148148	181.536988888889	176.506477777778	48	2.64	15.888	21.84
401.98	0	36	response	159	2	197.329748148148	181.536988888889	176.506477777778	48	2.64	15.888	21.84
401.98	0.5	36	feedback	159	2	197.329748148148	181.536988888889	176.506477777778	48	2.64	15.888	21.84
408.638	4.00300000000004	37	valuation	355	3	223.183255555556	202.252092592593	177.950788888889	1250	38.75	111.25	365
412.641	1.02099999999996	37	rating	355	3	223.183255555556	202.252092592593	177.950788888889	1250	38.75	111.25	365
413.662	0	37	response	355	3	223.183255555556	202.252092592593	177.950788888889	1250	38.75	111.25	365
413.662	0.5	37	feedback	355	3	223.183255555556	202.252092592593	177.950788888889	1250	38.75	111.25	365
417.367	4.00399999999996	38	valuation	163	3	194.470577777778	175.139051851852	168.054074074074	100	5.2	26	48
421.371	1.149	38	rating	163	3	194.470577777778	175.139051851852	168.054074074074	100	5.2	26	48
422.52	0	38	response	163	3	194.470577777778	175.139051851852	168.054074074074	100	5.2	26	48
422.52	0.5	38	feedback	163	3	194.470577777778	175.139051851852	168.054074074074	100	5.2	26	48
428.499	4.00399999999996	39	valuation	542	2	221.90877037037	218.548407407407	205.845562962963	250	4.75	58.75	1
432.503	2.24400000000003	39	rating	542	2	221.90877037037	218.548407407407	205.845562962963	250	4.75	58.75	1
434.747	0	39	response	542	2	221.90877037037	218.548407407407	205.845562962963	250	4.75	58.75	1
434.747	0.5	39	feedback	542	2	221.90877037037	218.548407407407	205.845562962963	250	4.75	58.75	1
441.238	4.00400000000002	40	valuation	50	3	222.691766666667	203.613559259259	183.986959259259	750	46.05	120.15	208.2
445.242	0.810999999999979	40	rating	50	3	222.691766666667	203.613559259259	183.986959259259	750	46.05	120.15	208.2
446.053	0	40	response	50	3	222.691766666667	203.613559259259	183.986959259259	750	46.05	120.15	208.2
446.053	0.5	40	feedback	50	3	222.691766666667	203.613559259259	183.986959259259	750	46.05	120.15	208.2
449.864	4.00400000000002	41	valuation	269	2	231.128981481482	233.808259259259	209.526407407407	249	0.9711	4.6065	3.6354
453.868	1.26100000000002	41	rating	269	2	231.128981481482	233.808259259259	209.526407407407	249	0.9711	4.6065	3.6354
455.129	0	41	response	269	2	231.128981481482	233.808259259259	209.526407407407	249	0.9711	4.6065	3.6354
455.129	0.5	41	feedback	269	2	231.128981481482	233.808259259259	209.526407407407	249	0.9711	4.6065	3.6354
462.898	6.50799999999998	42	miss	440	0	241.811451851852	219.400740740741	193.191566666667	1100	90.2	13.2	536.8
473.37	4.00400000000002	43	valuation	549	2	248.646144444444	208.924014814815	169.531925925926	80	6.16	1.36	40.48
477.374	0.734999999999957	43	rating	549	2	248.646144444444	208.924014814815	169.531925925926	80	6.16	1.36	40.48
478.109	0	43	response	549	2	248.646144444444	208.924014814815	169.531925925926	80	6.16	1.36	40.48
478.109	0.5	43	feedback	549	2	248.646144444444	208.924014814815	169.531925925926	80	6.16	1.36	40.48
483.71	4.005	44	valuation	255	2	245.8923	229.223211111111	226.338888888889	150	0.36	0.315	8.76
487.715	1.05100000000004	44	rating	255	2	245.8923	229.223211111111	226.338888888889	150	0.36	0.315	8.76
488.766	0	44	response	255	2	245.8923	229.223211111111	226.338888888889	150	0.36	0.315	8.76
488.766	0.5	44	feedback	255	2	245.8923	229.223211111111	226.338888888889	150	0.36	0.315	8.76
497.332	4.005	45	valuation	9	4	232.070888888889	216.652388888889	201.2447	42	3.8178	10.08	23.94
501.337	1.46199999999999	45	rating	9	4	232.070888888889	216.652388888889	201.2447	42	3.8178	10.08	23.94
502.799	0	45	response	9	4	232.070888888889	216.652388888889	201.2447	42	3.8178	10.08	23.94
502.799	0.5	45	feedback	9	4	232.070888888889	216.652388888889	201.2447	42	3.8178	10.08	23.94
509.035	4.00299999999999	46	valuation	136	2	231.385133333333	225.913540740741	211.260633333333	100	3.1	9.3	29.9
513.038	1.09299999999996	46	rating	136	2	231.385133333333	225.913540740741	211.260633333333	100	3.1	9.3	29.9
514.131	0	46	response	136	2	231.385133333333	225.913540740741	211.260633333333	100	3.1	9.3	29.9
514.131	0.5	46	feedback	136	2	231.385133333333	225.913540740741	211.260633333333	100	3.1	9.3	29.9
517.075	6.50399999999991	47	miss	189	0	211.252040740741	198.967348148148	187.437492592593	90	7.353	13.05	48.447
528.286	4.00400000000002	48	valuation	246	2	223.636533333333	195.611785185185	185.338881481481	500	6.5	2.5	32
532.29	1.12800000000004	48	rating	246	2	223.636533333333	195.611785185185	185.338881481481	500	6.5	2.5	32
533.418	0	48	response	246	2	223.636533333333	195.611785185185	185.338881481481	500	6.5	2.5	32
533.418	0.5	48	feedback	246	2	223.636533333333	195.611785185185	185.338881481481	500	6.5	2.5	32
