onset	duration	trial_id	trial_type	image_id	rating_value	red	green	blue	gram	protein	fat	carb
10.037	4.006	1	valuation	329	1	251.147081481481	209.536566666667	191.461725925926	50	9.5	6.5	0
14.043	1.105	1	rating	329	1	251.147081481481	209.536566666667	191.461725925926	50	9.5	6.5	0
15.148	0	1	response	329	1	251.147081481481	209.536566666667	191.461725925926	50	9.5	6.5	0
15.148	0.5	1	feedback	329	1	251.147081481481	209.536566666667	191.461725925926	50	9.5	6.5	0
17.847	4.004	2	valuation	166	4	172.567551851852	165.345744444444	163.705092592593	56	1.68	5.936	37.576
21.851	1.079	2	rating	166	4	172.567551851852	165.345744444444	163.705092592593	56	1.68	5.936	37.576
22.93	0	2	response	166	4	172.567551851852	165.345744444444	163.705092592593	56	1.68	5.936	37.576
22.93	0.5	2	feedback	166	4	172.567551851852	165.345744444444	163.705092592593	56	1.68	5.936	37.576
30.56	4.008	3	valuation	513	4	197.361259259259	198.7587	189.025185185185	20	0.36	4.85	0.79
34.568	0.616	3	rating	513	4	197.361259259259	198.7587	189.025185185185	20	0.36	4.85	0.79
35.184	0	3	response	513	4	197.361259259259	198.7587	189.025185185185	20	0.36	4.85	0.79
35.184	0.5	3	feedback	513	4	197.361259259259	198.7587	189.025185185185	20	0.36	4.85	0.79
40.933	4.003	4	valuation	337	1	230.767918518518	215.990459259259	204.099437037037	300	32.34	9.51	9.93
44.936	0.427999999999997	4	rating	337	1	230.767918518518	215.990459259259	204.099437037037	300	32.34	9.51	9.93
45.364	0	4	response	337	1	230.767918518518	215.990459259259	204.099437037037	300	32.34	9.51	9.93
45.364	0.5	4	feedback	337	1	230.767918518518	215.990459259259	204.099437037037	300	32.34	9.51	9.93
53.525	4.004	5	valuation	92	4	242.662940740741	227.70252962963	196.131222222222	600	150	210	0
57.529	0.558999999999997	5	rating	92	4	242.662940740741	227.70252962963	196.131222222222	600	150	210	0
58.088	0	5	response	92	4	242.662940740741	227.70252962963	196.131222222222	600	150	210	0
58.088	0.5	5	feedback	92	4	242.662940740741	227.70252962963	196.131222222222	600	150	210	0
65.467	4.004	6	valuation	470	3	222.446555555556	213.772659259259	210.057177777778	240	19.2	25.56	38.4
69.471	1.506	6	rating	470	3	222.446555555556	213.772659259259	210.057177777778	240	19.2	25.56	38.4
70.977	0	6	response	470	3	222.446555555556	213.772659259259	210.057177777778	240	19.2	25.56	38.4
70.977	0.5	6	feedback	470	3	222.446555555556	213.772659259259	210.057177777778	240	19.2	25.56	38.4
74.972	4.00500000000001	7	valuation	543	2	227.375385185185	233.356462962963	195.138307407407	500	3.5	1.5	78
78.977	0.694999999999993	7	rating	543	2	227.375385185185	233.356462962963	195.138307407407	500	3.5	1.5	78
79.672	0	7	response	543	2	227.375385185185	233.356462962963	195.138307407407	500	3.5	1.5	78
79.672	0.5	7	feedback	543	2	227.375385185185	233.356462962963	195.138307407407	500	3.5	1.5	78
83.927	4.00399999999999	8	valuation	263	1	232.085611111111	221.1082	211.829974074074	118	2.5842	0.2242	0.531
87.931	0.722000000000008	8	rating	263	1	232.085611111111	221.1082	211.829974074074	118	2.5842	0.2242	0.531
88.653	0	8	response	263	1	232.085611111111	221.1082	211.829974074074	118	2.5842	0.2242	0.531
88.653	0.5	8	feedback	263	1	232.085611111111	221.1082	211.829974074074	118	2.5842	0.2242	0.531
93.042	4.004	9	valuation	272	1	226.874996296296	232.635744444444	227.7664	30	1.074	0.18	0.48
97.046	0.977999999999994	9	rating	272	1	226.874996296296	232.635744444444	227.7664	30	1.074	0.18	0.48
98.024	0	9	response	272	1	226.874996296296	232.635744444444	227.7664	30	1.074	0.18	0.48
98.024	0.5	9	feedback	272	1	226.874996296296	232.635744444444	227.7664	30	1.074	0.18	0.48
105.152	4.006	10	valuation	506	3	179.659574074074	169.293444444444	160.883525925926	13	0.39	1.3	8.97
109.158	1.117	10	rating	506	3	179.659574074074	169.293444444444	160.883525925926	13	0.39	1.3	8.97
110.275	0	10	response	506	3	179.659574074074	169.293444444444	160.883525925926	13	0.39	1.3	8.97
110.275	0.5	10	feedback	506	3	179.659574074074	169.293444444444	160.883525925926	13	0.39	1.3	8.97
113.095	4.004	11	valuation	50	2	222.691766666667	203.613559259259	183.986959259259	750	46.05	120.15	208.2
117.099	0.466999999999999	11	rating	50	2	222.691766666667	203.613559259259	183.986959259259	750	46.05	120.15	208.2
117.566	0	11	response	50	2	222.691766666667	203.613559259259	183.986959259259	750	46.05	120.15	208.2
117.566	0.5	11	feedback	50	2	222.691766666667	203.613559259259	183.986959259259	750	46.05	120.15	208.2
123.91	4.00500000000001	12	valuation	192	3	235.551411111111	214.036388888889	197.404074074074	150	0.465	0.6	17.1
127.915	0.493999999999986	12	rating	192	3	235.551411111111	214.036388888889	197.404074074074	150	0.465	0.6	17.1
128.409	0	12	response	192	3	235.551411111111	214.036388888889	197.404074074074	150	0.465	0.6	17.1
128.409	0.5	12	feedback	192	3	235.551411111111	214.036388888889	197.404074074074	150	0.465	0.6	17.1
135.276	4.00299999999999	13	valuation	47	3	234.398955555556	215.853603703704	189.506048148148	600	93.6	62.4	58.8
139.279	0.836000000000013	13	rating	47	3	234.398955555556	215.853603703704	189.506048148148	600	93.6	62.4	58.8
140.115	0	13	response	47	3	234.398955555556	215.853603703704	189.506048148148	600	93.6	62.4	58.8
140.115	0.5	13	feedback	47	3	234.398955555556	215.853603703704	189.506048148148	600	93.6	62.4	58.8
146.842	4.00999999999999	14	valuation	186	3	239.517907407407	228.71982962963	218.830822222222	28	2.52	0.14	21.084
150.852	0.597999999999985	14	rating	186	3	239.517907407407	228.71982962963	218.830822222222	28	2.52	0.14	21.084
151.45	0	14	response	186	3	239.517907407407	228.71982962963	218.830822222222	28	2.52	0.14	21.084
151.45	0.5	14	feedback	186	3	239.517907407407	228.71982962963	218.830822222222	28	2.52	0.14	21.084
157.268	4.00399999999999	15	valuation	433	1	240.476533333333	216.10922962963	201.709562962963	1200	16.8	2.4	55.2
161.272	0.602000000000004	15	rating	433	1	240.476533333333	216.10922962963	201.709562962963	1200	16.8	2.4	55.2
161.874	0	15	response	433	1	240.476533333333	216.10922962963	201.709562962963	1200	16.8	2.4	55.2
161.874	0.5	15	feedback	433	1	240.476533333333	216.10922962963	201.709562962963	1200	16.8	2.4	55.2
164.427	4.00400000000002	16	valuation	41	4	206.442281481481	198.14667037037	185.634414814815	50	3.91	11.5	21
168.431	0.486999999999995	16	rating	41	4	206.442281481481	198.14667037037	185.634414814815	50	3.91	11.5	21
168.918	0	16	response	41	4	206.442281481481	198.14667037037	185.634414814815	50	3.91	11.5	21
168.918	0.5	16	feedback	41	4	206.442281481481	198.14667037037	185.634414814815	50	3.91	11.5	21
172.257	4.00399999999999	17	valuation	540	4	223.916451851852	169.149040740741	168.88347037037	300	60	9	3
176.261	0.728000000000009	17	rating	540	4	223.916451851852	169.149040740741	168.88347037037	300	60	9	3
176.989	0	17	response	540	4	223.916451851852	169.149040740741	168.88347037037	300	60	9	3
176.989	0.5	17	feedback	540	4	223.916451851852	169.149040740741	168.88347037037	300	60	9	3
181.097	4.005	18	valuation	91	4	231.324514814815	211.111925925926	188.376314814815	240	28.8	28.8	33.6
185.102	0.591999999999985	18	rating	91	4	231.324514814815	211.111925925926	188.376314814815	240	28.8	28.8	33.6
185.694	0	18	response	91	4	231.324514814815	211.111925925926	188.376314814815	240	28.8	28.8	33.6
185.694	0.5	18	feedback	91	4	231.324514814815	211.111925925926	188.376314814815	240	28.8	28.8	33.6
188.901	4.00299999999999	19	valuation	56	4	230.325433333333	221.73747037037	215.9782	150	6	16.005	40.005
192.904	0.731999999999999	19	rating	56	4	230.325433333333	221.73747037037	215.9782	150	6	16.005	40.005
193.636	0	19	response	56	4	230.325433333333	221.73747037037	215.9782	150	6	16.005	40.005
193.636	0.5	19	feedback	56	4	230.325433333333	221.73747037037	215.9782	150	6	16.005	40.005
201.154	4.00399999999999	20	valuation	208	1	243.352581481481	230.928885185185	215.165185185185	520	4.16	0.832	20.488
205.158	1.00500000000002	20	rating	208	1	243.352581481481	230.928885185185	215.165185185185	520	4.16	0.832	20.488
206.163	0	20	response	208	1	243.352581481481	230.928885185185	215.165185185185	520	4.16	0.832	20.488
206.163	0.5	20	feedback	208	1	243.352581481481	230.928885185185	215.165185185185	520	4.16	0.832	20.488
212.629	4.00800000000001	21	valuation	396	1	247.924507407407	233.920281481482	212.072951851852	300	1.5	0.9	37.2
216.637	1.04900000000001	21	rating	396	1	247.924507407407	233.920281481482	212.072951851852	300	1.5	0.9	37.2
217.686	0	21	response	396	1	247.924507407407	233.920281481482	212.072951851852	300	1.5	0.9	37.2
217.686	0.5	21	feedback	396	1	247.924507407407	233.920281481482	212.072951851852	300	1.5	0.9	37.2
222.466	4.005	22	valuation	242	1	224.179066666667	218.207592592593	196.53022962963	670	3.819	1.34	20.234
226.471	0.829000000000008	22	rating	242	1	224.179066666667	218.207592592593	196.53022962963	670	3.819	1.34	20.234
227.3	0	22	response	242	1	224.179066666667	218.207592592593	196.53022962963	670	3.819	1.34	20.234
227.3	0.5	22	feedback	242	1	224.179066666667	218.207592592593	196.53022962963	670	3.819	1.34	20.234
231.811	4.005	23	valuation	157	4	198.883511111111	170.1025	123.753666666667	100	6.3	0.1	77.4
235.816	1.03299999999999	23	rating	157	4	198.883511111111	170.1025	123.753666666667	100	6.3	0.1	77.4
236.849	0	23	response	157	4	198.883511111111	170.1025	123.753666666667	100	6.3	0.1	77.4
236.849	0.5	23	feedback	157	4	198.883511111111	170.1025	123.753666666667	100	6.3	0.1	77.4
241.752	4.00399999999999	24	valuation	106	4	195.295644444444	163.75657037037	154.613781481481	750	40.5	115.5	386.25
245.756	0.602000000000004	24	rating	106	4	195.295644444444	163.75657037037	154.613781481481	750	40.5	115.5	386.25
246.358	0	24	response	106	4	195.295644444444	163.75657037037	154.613781481481	750	40.5	115.5	386.25
246.358	0.5	24	feedback	106	4	195.295644444444	163.75657037037	154.613781481481	750	40.5	115.5	386.25
250.219	4.00300000000001	25	valuation	440	4	241.811451851852	219.400740740741	193.191566666667	1100	90.2	13.2	536.8
254.222	1.464	25	rating	440	4	241.811451851852	219.400740740741	193.191566666667	1100	90.2	13.2	536.8
255.686	0	25	response	440	4	241.811451851852	219.400740740741	193.191566666667	1100	90.2	13.2	536.8
255.686	0.5	25	feedback	440	4	241.811451851852	219.400740740741	193.191566666667	1100	90.2	13.2	536.8
261.761	4.00399999999996	26	valuation	159	4	197.329748148148	181.536988888889	176.506477777778	48	2.64	15.888	21.84
265.765	0.622000000000014	26	rating	159	4	197.329748148148	181.536988888889	176.506477777778	48	2.64	15.888	21.84
266.387	0	26	response	159	4	197.329748148148	181.536988888889	176.506477777778	48	2.64	15.888	21.84
266.387	0.5	26	feedback	159	4	197.329748148148	181.536988888889	176.506477777778	48	2.64	15.888	21.84
269.332	4.00400000000002	27	valuation	454	4	219.902148148148	220.933455555556	200.841318518518	450	1.8	0.9	55.8
273.336	1.11099999999999	27	rating	454	4	219.902148148148	220.933455555556	200.841318518518	450	1.8	0.9	55.8
274.447	0	27	response	454	4	219.902148148148	220.933455555556	200.841318518518	450	1.8	0.9	55.8
274.447	0.5	27	feedback	454	4	219.902148148148	220.933455555556	200.841318518518	450	1.8	0.9	55.8
279.087	4.00400000000002	28	valuation	119	4	240.868811111111	223.05452962963	202.6496	50	3.615	13.43	17.75
283.091	0.673999999999978	28	rating	119	4	240.868811111111	223.05452962963	202.6496	50	3.615	13.43	17.75
283.765	0	28	response	119	4	240.868811111111	223.05452962963	202.6496	50	3.615	13.43	17.75
283.765	0.5	28	feedback	119	4	240.868811111111	223.05452962963	202.6496	50	3.615	13.43	17.75
292.326	4.00399999999996	29	valuation	51	4	226.266981481481	216.113044444444	199.440296296296	500	32.05	84.25	212.6
296.33	0.924000000000035	29	rating	51	4	226.266981481481	216.113044444444	199.440296296296	500	32.05	84.25	212.6
297.254	0	29	response	51	4	226.266981481481	216.113044444444	199.440296296296	500	32.05	84.25	212.6
297.254	0.5	29	feedback	51	4	226.266981481481	216.113044444444	199.440296296296	500	32.05	84.25	212.6
300.861	4.00400000000002	30	valuation	313	4	243.020677777778	232.450648148148	229.041277777778	92	2.5024	8.9976	35.9996
304.865	0.644000000000005	30	rating	313	4	243.020677777778	232.450648148148	229.041277777778	92	2.5024	8.9976	35.9996
305.509	0	30	response	313	4	243.020677777778	232.450648148148	229.041277777778	92	2.5024	8.9976	35.9996
305.509	0.5	30	feedback	313	4	243.020677777778	232.450648148148	229.041277777778	92	2.5024	8.9976	35.9996
313.934	4.00799999999998	31	valuation	162	3	175.828844444444	170.449585185185	170.038607407407	140	7	32.2	72.8
317.942	1.267	31	rating	162	3	175.828844444444	170.449585185185	170.038607407407	140	7	32.2	72.8
319.209	0	31	response	162	3	175.828844444444	170.449585185185	170.038607407407	140	7	32.2	72.8
319.209	0.5	31	feedback	162	3	175.828844444444	170.449585185185	170.038607407407	140	7	32.2	72.8
325.153	4.00399999999996	32	valuation	121	4	241.824925925926	230.59102962963	217.331840740741	10	0.68	3.057	5.332
329.157	0.600000000000023	32	rating	121	4	241.824925925926	230.59102962963	217.331840740741	10	0.68	3.057	5.332
329.757	0	32	response	121	4	241.824925925926	230.59102962963	217.331840740741	10	0.68	3.057	5.332
329.757	0.5	32	feedback	121	4	241.824925925926	230.59102962963	217.331840740741	10	0.68	3.057	5.332
335.965	4.00400000000002	33	valuation	395	3	207.875462962963	220.707348148148	194.600777777778	1100	23.76	3.19	19.14
339.969	0.944000000000017	33	rating	395	3	207.875462962963	220.707348148148	194.600777777778	1100	23.76	3.19	19.14
340.913	0	33	response	395	3	207.875462962963	220.707348148148	194.600777777778	1100	23.76	3.19	19.14
340.913	0.5	33	feedback	395	3	207.875462962963	220.707348148148	194.600777777778	1100	23.76	3.19	19.14
348.16	4.00399999999996	34	valuation	215	1	226.313933333333	219.814351851852	192.275048148148	50	0.391	0.073	1.969
352.164	0.971000000000004	34	rating	215	1	226.313933333333	219.814351851852	192.275048148148	50	0.391	0.073	1.969
353.135	0	34	response	215	1	226.313933333333	219.814351851852	192.275048148148	50	0.391	0.073	1.969
353.135	0.5	34	feedback	215	1	226.313933333333	219.814351851852	192.275048148148	50	0.391	0.073	1.969
358.419	4.00400000000002	35	valuation	284	1	216.230988888889	202.983677777778	199.322748148148	30	0.3	0.09	4.68
362.423	1.18400000000003	35	rating	284	1	216.230988888889	202.983677777778	199.322748148148	30	0.3	0.09	4.68
363.607	0	35	response	284	1	216.230988888889	202.983677777778	199.322748148148	30	0.3	0.09	4.68
363.607	0.5	35	feedback	284	1	216.230988888889	202.983677777778	199.322748148148	30	0.3	0.09	4.68
371.515	4.00400000000002	36	valuation	180	2	240.119981481481	230.448837037037	223.464896296296	25	1.725	2.975	16.2
375.519	1.01799999999997	36	rating	180	2	240.119981481481	230.448837037037	223.464896296296	25	1.725	2.975	16.2
376.537	0	36	response	180	2	240.119981481481	230.448837037037	223.464896296296	25	1.725	2.975	16.2
376.537	0.5	36	feedback	180	2	240.119981481481	230.448837037037	223.464896296296	25	1.725	2.975	16.2
384.576	4.00799999999998	37	valuation	410	4	234.31097037037	214.737685185185	193.043496296296	300	75.9	144.3	24.9
388.584	2.06400000000002	37	rating	410	4	234.31097037037	214.737685185185	193.043496296296	300	75.9	144.3	24.9
390.648	0	37	response	410	4	234.31097037037	214.737685185185	193.043496296296	300	75.9	144.3	24.9
390.648	0.5	37	feedback	410	4	234.31097037037	214.737685185185	193.043496296296	300	75.9	144.3	24.9
398.94	4.00400000000002	38	valuation	217	3	222.532559259259	217.896466666667	203.950048148148	195	1.95	0.8775	16.692
402.944	0.461999999999989	38	rating	217	3	222.532559259259	217.896466666667	203.950048148148	195	1.95	0.8775	16.692
403.406	0	38	response	217	3	222.532559259259	217.896466666667	203.950048148148	195	1.95	0.8775	16.692
403.406	0.5	38	feedback	217	3	222.532559259259	217.896466666667	203.950048148148	195	1.95	0.8775	16.692
406.481	4.00400000000002	39	valuation	255	2	245.8923	229.223211111111	226.338888888889	150	0.36	0.315	8.76
410.485	0.479999999999961	39	rating	255	2	245.8923	229.223211111111	226.338888888889	150	0.36	0.315	8.76
410.965	0	39	response	255	2	245.8923	229.223211111111	226.338888888889	150	0.36	0.315	8.76
410.965	0.5	39	feedback	255	2	245.8923	229.223211111111	226.338888888889	150	0.36	0.315	8.76
417.565	4.00400000000002	40	valuation	226	4	238.889974074074	236.237140740741	230.784377777778	200	24	5	124
421.569	1.08099999999996	40	rating	226	4	238.889974074074	236.237140740741	230.784377777778	200	24	5	124
422.65	0	40	response	226	4	238.889974074074	236.237140740741	230.784377777778	200	24	5	124
422.65	0.5	40	feedback	226	4	238.889974074074	236.237140740741	230.784377777778	200	24	5	124
427.672	4.00299999999999	41	valuation	377	4	239.679737037037	207.307562962963	170.026059259259	60	4.8	11.82	27.54
431.675	0.577999999999975	41	rating	377	4	239.679737037037	207.307562962963	170.026059259259	60	4.8	11.82	27.54
432.253	0	41	response	377	4	239.679737037037	207.307562962963	170.026059259259	60	4.8	11.82	27.54
432.253	0.5	41	feedback	377	4	239.679737037037	207.307562962963	170.026059259259	60	4.8	11.82	27.54
437.677	4.005	42	valuation	289	4	208.197966666667	194.403118518519	189.596359259259	55	3.025	11.605	37.015
441.682	0.572000000000003	42	rating	289	4	208.197966666667	194.403118518519	189.596359259259	55	3.025	11.605	37.015
442.254	0	42	response	289	4	208.197966666667	194.403118518519	189.596359259259	55	3.025	11.605	37.015
442.254	0.5	42	feedback	289	4	208.197966666667	194.403118518519	189.596359259259	55	3.025	11.605	37.015
445.992	4.00399999999996	43	valuation	538	3	235.354840740741	199.819311111111	183.592681481481	250	35	62.5	5
449.996	0.689999999999998	43	rating	538	3	235.354840740741	199.819311111111	183.592681481481	250	35	62.5	5
450.686	0	43	response	538	3	235.354840740741	199.819311111111	183.592681481481	250	35	62.5	5
450.686	0.5	43	feedback	538	3	235.354840740741	199.819311111111	183.592681481481	250	35	62.5	5
454.16	4.00399999999996	44	valuation	258	1	240.773203703704	237.853218518519	230.853314814815	60	0.396	0.054	0.804
458.164	0.845000000000027	44	rating	258	1	240.773203703704	237.853218518519	230.853314814815	60	0.396	0.054	0.804
459.009	0	44	response	258	1	240.773203703704	237.853218518519	230.853314814815	60	0.396	0.054	0.804
459.009	0.5	44	feedback	258	1	240.773203703704	237.853218518519	230.853314814815	60	0.396	0.054	0.804
464.563	4.00400000000002	45	valuation	318	3	237.55152962963	224.783759259259	215.41777037037	197	24.822	35.854	18.124
468.567	0.49799999999999	45	rating	318	3	237.55152962963	224.783759259259	215.41777037037	197	24.822	35.854	18.124
469.065	0	45	response	318	3	237.55152962963	224.783759259259	215.41777037037	197	24.822	35.854	18.124
469.065	0.5	45	feedback	318	3	237.55152962963	224.783759259259	215.41777037037	197	24.822	35.854	18.124
474.229	4.00300000000004	46	valuation	404	3	240.598596296296	215.776155555556	187.599255555556	660	2.244	0	75.438
478.232	0.600999999999999	46	rating	404	3	240.598596296296	215.776155555556	187.599255555556	660	2.244	0	75.438
478.833	0	46	response	404	3	240.598596296296	215.776155555556	187.599255555556	660	2.244	0	75.438
478.833	0.5	46	feedback	404	3	240.598596296296	215.776155555556	187.599255555556	660	2.244	0	75.438
486.613	4.00799999999998	47	valuation	141	3	234.212044444444	208.694414814815	187.429848148148	350	19.95	17.85	45.5
490.621	0.62700000000001	47	rating	141	3	234.212044444444	208.694414814815	187.429848148148	350	19.95	17.85	45.5
491.248	0	47	response	141	3	234.212044444444	208.694414814815	187.429848148148	350	19.95	17.85	45.5
491.248	0.5	47	feedback	141	3	234.212044444444	208.694414814815	187.429848148148	350	19.95	17.85	45.5
