onset	duration	trial_id	trial_type	image_id	rating_value	red	green	blue	gram	protein	fat	carb
10.029	4.004	1	valuation	164	2	230.836774074074	221.049474074074	210.533777777778	5.6	0.42	1.232	3.696
14.033	0.791	1	rating	164	2	230.836774074074	221.049474074074	210.533777777778	5.6	0.42	1.232	3.696
14.824	0	1	response	164	2	230.836774074074	221.049474074074	210.533777777778	5.6	0.42	1.232	3.696
14.824	0.5	1	feedback	164	2	230.836774074074	221.049474074074	210.533777777778	5.6	0.42	1.232	3.696
19.719	4.004	2	valuation	319	2	233.153577777778	211.589825925926	200.948622222222	2000	364	344	0
23.723	0.626000000000001	2	rating	319	2	233.153577777778	211.589825925926	200.948622222222	2000	364	344	0
24.349	0	2	response	319	2	233.153577777778	211.589825925926	200.948622222222	2000	364	344	0
24.349	0.5	2	feedback	319	2	233.153577777778	211.589825925926	200.948622222222	2000	364	344	0
27.038	4.01	3	valuation	249	3	227.740374074074	228.878825925926	212.286907407407	1900	28.88	3.23	27.55
31.048	1.027	3	rating	249	3	227.740374074074	228.878825925926	212.286907407407	1900	28.88	3.23	27.55
32.075	0	3	response	249	3	227.740374074074	228.878825925926	212.286907407407	1900	28.88	3.23	27.55
32.075	0.5	3	feedback	249	3	227.740374074074	228.878825925926	212.286907407407	1900	28.88	3.23	27.55
40.675	4.006	4	valuation	471	3	237.820407407407	225.39417037037	215.471785185185	408	24.2352	33.2928	138.7608
44.681	1.128	4	rating	471	3	237.820407407407	225.39417037037	215.471785185185	408	24.2352	33.2928	138.7608
45.809	0	4	response	471	3	237.820407407407	225.39417037037	215.471785185185	408	24.2352	33.2928	138.7608
45.809	0.5	4	feedback	471	3	237.820407407407	225.39417037037	215.471785185185	408	24.2352	33.2928	138.7608
49.258	4.005	5	valuation	385	3	245.082577777778	237.646314814815	222.607103703704	250	10.25	5.25	82.5
53.263	0.838999999999999	5	rating	385	3	245.082577777778	237.646314814815	222.607103703704	250	10.25	5.25	82.5
54.102	0	5	response	385	3	245.082577777778	237.646314814815	222.607103703704	250	10.25	5.25	82.5
54.102	0.5	5	feedback	385	3	245.082577777778	237.646314814815	222.607103703704	250	10.25	5.25	82.5
57.947	4.004	6	valuation	13	2	212.567877777778	191.321511111111	169.601381481481	2000	97.6	481	646.2
61.951	1.795	6	rating	13	2	212.567877777778	191.321511111111	169.601381481481	2000	97.6	481	646.2
63.746	0	6	response	13	2	212.567877777778	191.321511111111	169.601381481481	2000	97.6	481	646.2
63.746	0.5	6	feedback	13	2	212.567877777778	191.321511111111	169.601381481481	2000	97.6	481	646.2
70.229	4.005	7	valuation	306	3	234.096081481481	192.577996296296	157.746648148148	230	4.6	15.433	27.83
74.234	1.001	7	rating	306	3	234.096081481481	192.577996296296	157.746648148148	230	4.6	15.433	27.83
75.235	0	7	response	306	3	234.096081481481	192.577996296296	157.746648148148	230	4.6	15.433	27.83
75.235	0.5	7	feedback	306	3	234.096081481481	192.577996296296	157.746648148148	230	4.6	15.433	27.83
78.551	4.004	8	valuation	289	3	208.197966666667	194.403118518519	189.596359259259	55	3.025	11.605	37.015
82.555	0.633999999999986	8	rating	289	3	208.197966666667	194.403118518519	189.596359259259	55	3.025	11.605	37.015
83.189	0	8	response	289	3	208.197966666667	194.403118518519	189.596359259259	55	3.025	11.605	37.015
83.189	0.5	8	feedback	289	3	208.197966666667	194.403118518519	189.596359259259	55	3.025	11.605	37.015
90.304	4.004	9	valuation	137	4	235.596192592593	223.724274074074	213.428074074074	75	4.65	15.525	36.75
94.308	0.549999999999997	9	rating	137	4	235.596192592593	223.724274074074	213.428074074074	75	4.65	15.525	36.75
94.858	0	9	response	137	4	235.596192592593	223.724274074074	213.428074074074	75	4.65	15.525	36.75
94.858	0.5	9	feedback	137	4	235.596192592593	223.724274074074	213.428074074074	75	4.65	15.525	36.75
103.145	4.00800000000001	10	valuation	255	2	245.8923	229.223211111111	226.338888888889	150	0.36	0.315	8.76
107.153	0.748999999999995	10	rating	255	2	245.8923	229.223211111111	226.338888888889	150	0.36	0.315	8.76
107.902	0	10	response	255	2	245.8923	229.223211111111	226.338888888889	150	0.36	0.315	8.76
107.902	0.5	10	feedback	255	2	245.8923	229.223211111111	226.338888888889	150	0.36	0.315	8.76
112.393	4.004	11	valuation	152	2	232.926840740741	205.275440740741	169.15117037037	20	2.6	4.8	11.2
116.397	0.99499999999999	11	rating	152	2	232.926840740741	205.275440740741	169.15117037037	20	2.6	4.8	11.2
117.392	0	11	response	152	2	232.926840740741	205.275440740741	169.15117037037	20	2.6	4.8	11.2
117.392	0.5	11	feedback	152	2	232.926840740741	205.275440740741	169.15117037037	20	2.6	4.8	11.2
123.976	4.00700000000001	12	valuation	2	4	224.223055555555	209.635125925926	185.501751851852	360	54	54	50.4
127.983	0.662000000000006	12	rating	2	4	224.223055555555	209.635125925926	185.501751851852	360	54	54	50.4
128.645	0	12	response	2	4	224.223055555555	209.635125925926	185.501751851852	360	54	54	50.4
128.645	0.5	12	feedback	2	4	224.223055555555	209.635125925926	185.501751851852	360	54	54	50.4
131.845	4.00399999999999	13	valuation	362	2	206.639866666667	195.098877777778	175.54102962963	120	2.4	0.24	3.72
135.849	0.855000000000018	13	rating	362	2	206.639866666667	195.098877777778	175.54102962963	120	2.4	0.24	3.72
136.704	0	13	response	362	2	206.639866666667	195.098877777778	175.54102962963	120	2.4	0.24	3.72
136.704	0.5	13	feedback	362	2	206.639866666667	195.098877777778	175.54102962963	120	2.4	0.24	3.72
141.977	6.517	14	miss	520	0	241.509025925926	241.656559259259	206.112614814815	25	0.25	0.075	1.975
155.6	4.00700000000001	15	valuation	408	4	230.645207407407	222.667955555556	206.490044444444	350	35.665	5.11	21.98
159.607	1.75900000000001	15	rating	408	4	230.645207407407	222.667955555556	206.490044444444	350	35.665	5.11	21.98
161.366	0	15	response	408	4	230.645207407407	222.667955555556	206.490044444444	350	35.665	5.11	21.98
161.366	0.5	15	feedback	408	4	230.645207407407	222.667955555556	206.490044444444	350	35.665	5.11	21.98
166.522	4.005	16	valuation	109	2	228.630974074074	211.481348148148	167.359840740741	50	14	23.5	5.5
170.527	0.743000000000023	16	rating	109	2	228.630974074074	211.481348148148	167.359840740741	50	14	23.5	5.5
171.27	0	16	response	109	2	228.630974074074	211.481348148148	167.359840740741	50	14	23.5	5.5
171.27	0.5	16	feedback	109	2	228.630974074074	211.481348148148	167.359840740741	50	14	23.5	5.5
177.197	4.00399999999999	17	valuation	425	4	232.791192592593	214.940514814815	198.185377777778	60	3.84	0.6	27.78
181.201	1.149	17	rating	425	4	232.791192592593	214.940514814815	198.185377777778	60	3.84	0.6	27.78
182.35	0	17	response	425	4	232.791192592593	214.940514814815	198.185377777778	60	3.84	0.6	27.78
182.35	0.5	17	feedback	425	4	232.791192592593	214.940514814815	198.185377777778	60	3.84	0.6	27.78
190.231	4.00400000000002	18	valuation	24	4	237.950762962963	227.837792592593	217.216607407407	400	6	19.2	60
194.235	0.934999999999974	18	rating	24	4	237.950762962963	227.837792592593	217.216607407407	400	6	19.2	60
195.17	0	18	response	24	4	237.950762962963	227.837792592593	217.216607407407	400	6	19.2	60
195.17	0.5	18	feedback	24	4	237.950762962963	227.837792592593	217.216607407407	400	6	19.2	60
200.966	4.00700000000001	19	valuation	453	3	237.348340740741	206.510103703704	179.368751851852	125	0.875	0.125	11.75
204.973	1.351	19	rating	453	3	237.348340740741	206.510103703704	179.368751851852	125	0.875	0.125	11.75
206.324	0	19	response	453	3	237.348340740741	206.510103703704	179.368751851852	125	0.875	0.125	11.75
206.324	0.5	19	feedback	453	3	237.348340740741	206.510103703704	179.368751851852	125	0.875	0.125	11.75
213.333	6.50399999999999	20	miss	558	0	228.833588888889	226.905788888889	218.695348148148	560	6.72	4.144	11.2
223.703	4.023	21	valuation	321	3	244.035311111111	236.397792592593	226.841944444444	50	6.5	5.55	0.35
227.726	1.756	21	rating	321	3	244.035311111111	236.397792592593	226.841944444444	50	6.5	5.55	0.35
229.482	0	21	response	321	3	244.035311111111	236.397792592593	226.841944444444	50	6.5	5.55	0.35
229.482	0.5	21	feedback	321	3	244.035311111111	236.397792592593	226.841944444444	50	6.5	5.55	0.35
235.8	4.00399999999999	22	valuation	338	1	221.165081481481	207.295811111111	204.795507407407	120	4.32	2.52	89.28
239.804	0.957999999999998	22	rating	338	1	221.165081481481	207.295811111111	204.795507407407	120	4.32	2.52	89.28
240.762	0	22	response	338	1	221.165081481481	207.295811111111	204.795507407407	120	4.32	2.52	89.28
240.762	0.5	22	feedback	338	1	221.165081481481	207.295811111111	204.795507407407	120	4.32	2.52	89.28
248.522	4.01900000000001	23	valuation	554	3	218.795292592593	200.597207407407	189.157607407407	300	60	24	3
252.541	1.505	23	rating	554	3	218.795292592593	200.597207407407	189.157607407407	300	60	24	3
254.046	0	23	response	554	3	218.795292592593	200.597207407407	189.157607407407	300	60	24	3
254.046	0.5	23	feedback	554	3	218.795292592593	200.597207407407	189.157607407407	300	60	24	3
258.144	4.005	24	valuation	537	4	226.169014814815	197.545233333333	179.910792592593	200	40	6	2
262.149	0.923000000000002	24	rating	537	4	226.169014814815	197.545233333333	179.910792592593	200	40	6	2
263.072	0	24	response	537	4	226.169014814815	197.545233333333	179.910792592593	200	40	6	2
263.072	0.5	24	feedback	537	4	226.169014814815	197.545233333333	179.910792592593	200	40	6	2
270.314	4.005	25	valuation	63	4	235.200085185185	226.835807407407	220.049166666667	40	5.24	3	27.2
274.319	0.702999999999975	25	rating	63	4	235.200085185185	226.835807407407	220.049166666667	40	5.24	3	27.2
275.022	0	25	response	63	4	235.200085185185	226.835807407407	220.049166666667	40	5.24	3	27.2
275.022	0.5	25	feedback	63	4	235.200085185185	226.835807407407	220.049166666667	40	5.24	3	27.2
280.047	4.00399999999996	26	valuation	269	1	231.128981481482	233.808259259259	209.526407407407	249	0.9711	4.6065	3.6354
284.051	1.47899999999998	26	rating	269	1	231.128981481482	233.808259259259	209.526407407407	249	0.9711	4.6065	3.6354
285.53	0	26	response	269	1	231.128981481482	233.808259259259	209.526407407407	249	0.9711	4.6065	3.6354
285.53	0.5	26	feedback	269	1	231.128981481482	233.808259259259	209.526407407407	249	0.9711	4.6065	3.6354
288.585	4.005	27	valuation	346	2	228.343103703704	197.327307407407	175.748781481482	600	12	0.66	88.8
292.59	0.991000000000042	27	rating	346	2	228.343103703704	197.327307407407	175.748781481482	600	12	0.66	88.8
293.581	0	27	response	346	2	228.343103703704	197.327307407407	175.748781481482	600	12	0.66	88.8
293.581	0.5	27	feedback	346	2	228.343103703704	197.327307407407	175.748781481482	600	12	0.66	88.8
301.071	4.00399999999996	28	valuation	298	3	216.774418518519	213.430107407407	212.563122222222	11.33	0.333102	2.331714	8.329816
305.075	0.918000000000006	28	rating	298	3	216.774418518519	213.430107407407	212.563122222222	11.33	0.333102	2.331714	8.329816
305.993	0	28	response	298	3	216.774418518519	213.430107407407	212.563122222222	11.33	0.333102	2.331714	8.329816
305.993	0.5	28	feedback	298	3	216.774418518519	213.430107407407	212.563122222222	11.33	0.333102	2.331714	8.329816
314.435	6.505	29	miss	373	0	246.58022962963	243.359962962963	234.293392592593	64	2.0032	7.04	16
326.097	4.005	30	valuation	359	1	235.124337037037	234.318940740741	220.059733333333	1000	13.3	1	14.3
330.102	1.12200000000001	30	rating	359	1	235.124337037037	234.318940740741	220.059733333333	1000	13.3	1	14.3
331.224	0	30	response	359	1	235.124337037037	234.318940740741	220.059733333333	1000	13.3	1	14.3
331.224	0.5	30	feedback	359	1	235.124337037037	234.318940740741	220.059733333333	1000	13.3	1	14.3
334.162	4.00300000000004	31	valuation	406	4	223.619848148148	217.093585185185	201.357018518519	325	30.615	18.135	21.97
338.165	0.887	31	rating	406	4	223.619848148148	217.093585185185	201.357018518519	325	30.615	18.135	21.97
339.052	0	31	response	406	4	223.619848148148	217.093585185185	201.357018518519	325	30.615	18.135	21.97
339.052	0.5	31	feedback	406	4	223.619848148148	217.093585185185	201.357018518519	325	30.615	18.135	21.97
343.672	4.00399999999996	32	valuation	26	3	240.671822222222	218.454088888889	165.623814814815	34	1.8632	11.9	16.32
347.676	0.509000000000015	32	rating	26	3	240.671822222222	218.454088888889	165.623814814815	34	1.8632	11.9	16.32
348.185	0	32	response	26	3	240.671822222222	218.454088888889	165.623814814815	34	1.8632	11.9	16.32
348.185	0.5	32	feedback	26	3	240.671822222222	218.454088888889	165.623814814815	34	1.8632	11.9	16.32
350.747	4.00399999999996	33	valuation	227	2	230.656755555556	218.651237037037	207.1778	150	7.5	3.15	43.2
354.751	1.63500000000005	33	rating	227	2	230.656755555556	218.651237037037	207.1778	150	7.5	3.15	43.2
356.386	0	33	response	227	2	230.656755555556	218.651237037037	207.1778	150	7.5	3.15	43.2
356.386	0.5	33	feedback	227	2	230.656755555556	218.651237037037	207.1778	150	7.5	3.15	43.2
359.964	4.00400000000002	34	valuation	372	2	243.878866666667	227.843533333333	196.686544444444	40	3.6	1.4	29.6
363.968	1.11099999999999	34	rating	372	2	243.878866666667	227.843533333333	196.686544444444	40	3.6	1.4	29.6
365.079	0	34	response	372	2	243.878866666667	227.843533333333	196.686544444444	40	3.6	1.4	29.6
365.079	0.5	34	feedback	372	2	243.878866666667	227.843533333333	196.686544444444	40	3.6	1.4	29.6
371.144	4.00400000000002	35	valuation	339	2	242.204418518518	216.689951851852	205.899985185185	80	4.8	0	63.2
375.148	1.38	35	rating	339	2	242.204418518518	216.689951851852	205.899985185185	80	4.8	0	63.2
376.528	0	35	response	339	2	242.204418518518	216.689951851852	205.899985185185	80	4.8	0	63.2
376.528	0.5	35	feedback	339	2	242.204418518518	216.689951851852	205.899985185185	80	4.8	0	63.2
383.367	4.00399999999996	36	valuation	71	2	239.094714814815	231.21037037037	209.720744444444	600	156	175.2	0
387.371	2.45300000000003	36	rating	71	2	239.094714814815	231.21037037037	209.720744444444	600	156	175.2	0
389.824	0	36	response	71	2	239.094714814815	231.21037037037	209.720744444444	600	156	175.2	0
389.824	0.5	36	feedback	71	2	239.094714814815	231.21037037037	209.720744444444	600	156	175.2	0
396.016	4.00399999999996	37	valuation	229	4	215.630496296296	207.42947037037	184.50462962963	130	2.249	0.455	4.55
400.02	0.566000000000031	37	rating	229	4	215.630496296296	207.42947037037	184.50462962963	130	2.249	0.455	4.55
400.586	0	37	response	229	4	215.630496296296	207.42947037037	184.50462962963	130	2.249	0.455	4.55
400.586	0.5	37	feedback	229	4	215.630496296296	207.42947037037	184.50462962963	130	2.249	0.455	4.55
406.12	4.005	38	valuation	54	2	230.317233333333	217.095607407407	192.581888888889	500	143.5	150	0
410.125	0.863999999999976	38	rating	54	2	230.317233333333	217.095607407407	192.581888888889	500	143.5	150	0
410.989	0	38	response	54	2	230.317233333333	217.095607407407	192.581888888889	500	143.5	150	0
410.989	0.5	38	feedback	54	2	230.317233333333	217.095607407407	192.581888888889	500	143.5	150	0
416.397	4.02300000000002	39	valuation	393	1	245.846081481481	235.4353	181.740533333333	2000	20	1.8	254
420.42	0.855999999999995	39	rating	393	1	245.846081481481	235.4353	181.740533333333	2000	20	1.8	254
421.276	0	39	response	393	1	245.846081481481	235.4353	181.740533333333	2000	20	1.8	254
421.276	0.5	39	feedback	393	1	245.846081481481	235.4353	181.740533333333	2000	20	1.8	254
424.984	4.00400000000002	40	valuation	20	2	231.082603703704	212.621714814815	188.195388888889	300	20.01	39.99	125.01
428.988	1.58999999999997	40	rating	20	2	231.082603703704	212.621714814815	188.195388888889	300	20.01	39.99	125.01
430.578	0	40	response	20	2	231.082603703704	212.621714814815	188.195388888889	300	20.01	39.99	125.01
430.578	0.5	40	feedback	20	2	231.082603703704	212.621714814815	188.195388888889	300	20.01	39.99	125.01
438.592	4.02600000000001	41	valuation	281	4	240.906259259259	242.674366666667	221.759122222222	100	1	0.3	15.6
442.618	0.738	41	rating	281	4	240.906259259259	242.674366666667	221.759122222222	100	1	0.3	15.6
443.356	0	41	response	281	4	240.906259259259	242.674366666667	221.759122222222	100	1	0.3	15.6
443.356	0.5	41	feedback	281	4	240.906259259259	242.674366666667	221.759122222222	100	1	0.3	15.6
451.499	6.51899999999995	42	miss	419	0	243.592155555556	224.027522222222	209.668392592593	700	27.3	89.6	238.7
462.282	4.005	43	valuation	108	4	236.901259259259	214.991218518518	189.073674074074	550	36.025	31.02	116.985
466.287	0.54200000000003	43	rating	108	4	236.901259259259	214.991218518518	189.073674074074	550	36.025	31.02	116.985
466.829	0	43	response	108	4	236.901259259259	214.991218518518	189.073674074074	550	36.025	31.02	116.985
466.829	0.5	43	feedback	108	4	236.901259259259	214.991218518518	189.073674074074	550	36.025	31.02	116.985
470.801	4.00400000000002	44	valuation	529	2	208.136585185185	199.001888888889	165.4134	300	12	1.2	16.5
474.805	1.428	44	rating	529	2	208.136585185185	199.001888888889	165.4134	300	12	1.2	16.5
476.233	0	44	response	529	2	208.136585185185	199.001888888889	165.4134	300	12	1.2	16.5
476.233	0.5	44	feedback	529	2	208.136585185185	199.001888888889	165.4134	300	12	1.2	16.5
482.946	4.00399999999996	45	valuation	430	4	215.593651851852	222.744125925926	185.890007407407	650	6.5	1.3	10.205
486.95	0.77600000000001	45	rating	430	4	215.593651851852	222.744125925926	185.890007407407	650	6.5	1.3	10.205
487.726	0	45	response	430	4	215.593651851852	222.744125925926	185.890007407407	650	6.5	1.3	10.205
487.726	0.5	45	feedback	430	4	215.593651851852	222.744125925926	185.890007407407	650	6.5	1.3	10.205
491.956	4.00399999999996	46	valuation	473	4	225.898155555556	198.22077037037	157.017088888889	245	39.102	30.723	35.231
495.96	0.585000000000036	46	rating	473	4	225.898155555556	198.22077037037	157.017088888889	245	39.102	30.723	35.231
496.545	0	46	response	473	4	225.898155555556	198.22077037037	157.017088888889	245	39.102	30.723	35.231
496.545	0.5	46	feedback	473	4	225.898155555556	198.22077037037	157.017088888889	245	39.102	30.723	35.231
503.921	4.00799999999998	47	valuation	331	3	207.089233333333	190.472796296296	165.613433333333	70	4.347	15.19	30.023
507.929	0.628000000000043	47	rating	331	3	207.089233333333	190.472796296296	165.613433333333	70	4.347	15.19	30.023
508.557	0	47	response	331	3	207.089233333333	190.472796296296	165.613433333333	70	4.347	15.19	30.023
508.557	0.5	47	feedback	331	3	207.089233333333	190.472796296296	165.613433333333	70	4.347	15.19	30.023
