onset	duration	trial_id	trial_type	image_id	rating_value	red	green	blue	gram	protein	fat	carb
10.047	4.005	1	valuation	147	1	237.128222222222	225.726059259259	223.239396296296	30	1.38	0.06	23.88
14.052	0.827	1	rating	147	1	237.128222222222	225.726059259259	223.239396296296	30	1.38	0.06	23.88
14.879	0	1	response	147	1	237.128222222222	225.726059259259	223.239396296296	30	1.38	0.06	23.88
14.879	0.5	1	feedback	147	1	237.128222222222	225.726059259259	223.239396296296	30	1.38	0.06	23.88
18.469	4.022	2	valuation	283	4	223.747351851852	218.659118518519	190.168366666667	250	5	58.75	1
22.491	0.606999999999999	2	rating	283	4	223.747351851852	218.659118518519	190.168366666667	250	5	58.75	1
23.098	0	2	response	283	4	223.747351851852	218.659118518519	190.168366666667	250	5	58.75	1
23.098	0.5	2	feedback	283	4	223.747351851852	218.659118518519	190.168366666667	250	5	58.75	1
26.322	4.005	3	valuation	194	3	218.023318518519	218.78382962963	201.719222222222	50	0.435	0.275	4.685
30.327	0.642999999999997	3	rating	194	3	218.023318518519	218.78382962963	201.719222222222	50	0.435	0.275	4.685
30.97	0	3	response	194	3	218.023318518519	218.78382962963	201.719222222222	50	0.435	0.275	4.685
30.97	0.5	3	feedback	194	3	218.023318518519	218.78382962963	201.719222222222	50	0.435	0.275	4.685
34.73	4.004	4	valuation	76	2	237.850766666667	229.7443	217.034077777778	350	14.35	8.05	71.75
38.734	0.795999999999999	4	rating	76	2	237.850766666667	229.7443	217.034077777778	350	14.35	8.05	71.75
39.53	0	4	response	76	2	237.850766666667	229.7443	217.034077777778	350	14.35	8.05	71.75
39.53	0.5	4	feedback	76	2	237.850766666667	229.7443	217.034077777778	350	14.35	8.05	71.75
46.67	4.008	5	valuation	436	1	242.090233333333	230.336774074074	170.7118	85	0.85	0.255	5.695
50.678	1.119	5	rating	436	1	242.090233333333	230.336774074074	170.7118	85	0.85	0.255	5.695
51.797	0	5	response	436	1	242.090233333333	230.336774074074	170.7118	85	0.85	0.255	5.695
51.797	0.5	5	feedback	436	1	242.090233333333	230.336774074074	170.7118	85	0.85	0.255	5.695
56.678	4.005	6	valuation	219	2	236.940559259259	234.579051851852	223.992881481481	300	5.19	1.05	10.5
60.683	1.118	6	rating	219	2	236.940559259259	234.579051851852	223.992881481481	300	5.19	1.05	10.5
61.801	0	6	response	219	2	236.940559259259	234.579051851852	223.992881481481	300	5.19	1.05	10.5
61.801	0.5	6	feedback	219	2	236.940559259259	234.579051851852	223.992881481481	300	5.19	1.05	10.5
66.942	4.00500000000001	7	valuation	388	1	251.513644444444	251.240011111111	248.662714814815	150	0.15	0	3.9
70.947	0.634999999999991	7	rating	388	1	251.513644444444	251.240011111111	248.662714814815	150	0.15	0	3.9
71.582	0	7	response	388	1	251.513644444444	251.240011111111	248.662714814815	150	0.15	0	3.9
71.582	0.5	7	feedback	388	1	251.513644444444	251.240011111111	248.662714814815	150	0.15	0	3.9
77.007	4.00399999999999	8	valuation	354	4	208.062944444444	184.856207407407	173.836218518518	65	1.378	4.1795	11.96
81.011	1.10900000000001	8	rating	354	4	208.062944444444	184.856207407407	173.836218518518	65	1.378	4.1795	11.96
82.12	0	8	response	354	4	208.062944444444	184.856207407407	173.836218518518	65	1.378	4.1795	11.96
82.12	0.5	8	feedback	354	4	208.062944444444	184.856207407407	173.836218518518	65	1.378	4.1795	11.96
89	4.004	9	valuation	165	4	225.317955555556	214.999707407407	210.162355555556	40	2.24	11	22.92
93.004	0.747	9	rating	165	4	225.317955555556	214.999707407407	210.162355555556	40	2.24	11	22.92
93.751	0	9	response	165	4	225.317955555556	214.999707407407	210.162355555556	40	2.24	11	22.92
93.751	0.5	9	feedback	165	4	225.317955555556	214.999707407407	210.162355555556	40	2.24	11	22.92
101.805	4.01599999999999	10	valuation	173	3	238.459222222222	234.629877777778	232.747222222222	31.5	3.15	10.71	16.695
105.821	0.560000000000002	10	rating	173	3	238.459222222222	234.629877777778	232.747222222222	31.5	3.15	10.71	16.695
106.381	0	10	response	173	3	238.459222222222	234.629877777778	232.747222222222	31.5	3.15	10.71	16.695
106.381	0.5	10	feedback	173	3	238.459222222222	234.629877777778	232.747222222222	31.5	3.15	10.71	16.695
114.942	4.004	11	valuation	204	3	225.075844444444	209.55872962963	187.369118518519	1350	4.185	5.4	153.9
118.946	0.531999999999996	11	rating	204	3	225.075844444444	209.55872962963	187.369118518519	1350	4.185	5.4	153.9
119.478	0	11	response	204	3	225.075844444444	209.55872962963	187.369118518519	1350	4.185	5.4	153.9
119.478	0.5	11	feedback	204	3	225.075844444444	209.55872962963	187.369118518519	1350	4.185	5.4	153.9
125.142	4.00399999999999	12	valuation	412	3	242.19412962963	233.376559259259	215.4649	200	4	0.22	29.6
129.146	1.232	12	rating	412	3	242.19412962963	233.376559259259	215.4649	200	4	0.22	29.6
130.378	0	12	response	412	3	242.19412962963	233.376559259259	215.4649	200	4	0.22	29.6
130.378	0.5	12	feedback	412	3	242.19412962963	233.376559259259	215.4649	200	4	0.22	29.6
136.188	4.00400000000002	13	valuation	79	3	222.767307407407	212.900837037037	206.303085185185	24	1.464	5.04	16.32
140.192	0.614999999999981	13	rating	79	3	222.767307407407	212.900837037037	206.303085185185	24	1.464	5.04	16.32
140.807	0	13	response	79	3	222.767307407407	212.900837037037	206.303085185185	24	1.464	5.04	16.32
140.807	0.5	13	feedback	79	3	222.767307407407	212.900837037037	206.303085185185	24	1.464	5.04	16.32
148.951	4.01900000000001	14	valuation	364	3	224.224622222222	230.670088888889	200.154666666667	80	1.36	0.08	3.76
152.97	0.828000000000003	14	rating	364	3	224.224622222222	230.670088888889	200.154666666667	80	1.36	0.08	3.76
153.798	0	14	response	364	3	224.224622222222	230.670088888889	200.154666666667	80	1.36	0.08	3.76
153.798	0.5	14	feedback	364	3	224.224622222222	230.670088888889	200.154666666667	80	1.36	0.08	3.76
157.898	4.005	15	valuation	256	4	244.840307407407	205.061040740741	186.122466666667	500	2	0.5	29.55
161.903	0.748000000000019	15	rating	256	4	244.840307407407	205.061040740741	186.122466666667	500	2	0.5	29.55
162.651	0	15	response	256	4	244.840307407407	205.061040740741	186.122466666667	500	2	0.5	29.55
162.651	0.5	15	feedback	256	4	244.840307407407	205.061040740741	186.122466666667	500	2	0.5	29.55
165.72	4.00399999999999	16	valuation	259	1	218.695496296296	192.047703703704	203.066840740741	1600	18.72	2.24	44.16
169.724	0.689000000000021	16	rating	259	1	218.695496296296	192.047703703704	203.066840740741	1600	18.72	2.24	44.16
170.413	0	16	response	259	1	218.695496296296	192.047703703704	203.066840740741	1600	18.72	2.24	44.16
170.413	0.5	16	feedback	259	1	218.695496296296	192.047703703704	203.066840740741	1600	18.72	2.24	44.16
176.602	4.00399999999999	17	valuation	109	4	228.630974074074	211.481348148148	167.359840740741	50	14	23.5	5.5
180.606	0.867999999999995	17	rating	109	4	228.630974074074	211.481348148148	167.359840740741	50	14	23.5	5.5
181.474	0	17	response	109	4	228.630974074074	211.481348148148	167.359840740741	50	14	23.5	5.5
181.474	0.5	17	feedback	109	4	228.630974074074	211.481348148148	167.359840740741	50	14	23.5	5.5
186.773	4.00399999999999	18	valuation	49	1	221.546081481481	209.746385185185	205.634555555556	240	8.4	45.6	69.6
190.777	0.687000000000012	18	rating	49	1	221.546081481481	209.746385185185	205.634555555556	240	8.4	45.6	69.6
191.464	0	18	response	49	1	221.546081481481	209.746385185185	205.634555555556	240	8.4	45.6	69.6
191.464	0.5	18	feedback	49	1	221.546081481481	209.746385185185	205.634555555556	240	8.4	45.6	69.6
199.737	4.00700000000001	19	valuation	451	3	232.25152962963	199.246766666667	173.495596296296	7	0.8372	4.312	0.7378
203.744	0.754999999999995	19	rating	451	3	232.25152962963	199.246766666667	173.495596296296	7	0.8372	4.312	0.7378
204.499	0	19	response	451	3	232.25152962963	199.246766666667	173.495596296296	7	0.8372	4.312	0.7378
204.499	0.5	19	feedback	451	3	232.25152962963	199.246766666667	173.495596296296	7	0.8372	4.312	0.7378
209.14	4.00400000000002	20	valuation	247	3	212.764518518519	215.636559259259	206.864307407407	250	2.925	0.75	7.275
213.144	2.36799999999999	20	rating	247	3	212.764518518519	215.636559259259	206.864307407407	250	2.925	0.75	7.275
215.512	0	20	response	247	3	212.764518518519	215.636559259259	206.864307407407	250	2.925	0.75	7.275
215.512	0.5	20	feedback	247	3	212.764518518519	215.636559259259	206.864307407407	250	2.925	0.75	7.275
223.397	4.00400000000002	21	valuation	465	4	204.802055555556	193.160851851852	187.578444444444	70	4.55	26.6	35
227.401	0.527999999999992	21	rating	465	4	204.802055555556	193.160851851852	187.578444444444	70	4.55	26.6	35
227.929	0	21	response	465	4	204.802055555556	193.160851851852	187.578444444444	70	4.55	26.6	35
227.929	0.5	21	feedback	465	4	204.802055555556	193.160851851852	187.578444444444	70	4.55	26.6	35
235.326	4.00900000000001	22	valuation	317	1	217.140840740741	199.142059259259	168.9495	150	4.05	3.3	38.25
239.335	0.456999999999994	22	rating	317	1	217.140840740741	199.142059259259	168.9495	150	4.05	3.3	38.25
239.792	0	22	response	317	1	217.140840740741	199.142059259259	168.9495	150	4.05	3.3	38.25
239.792	0.5	22	feedback	317	1	217.140840740741	199.142059259259	168.9495	150	4.05	3.3	38.25
244.543	4.005	23	valuation	242	3	224.179066666667	218.207592592593	196.53022962963	670	3.819	1.34	20.234
248.548	0.406000000000006	23	rating	242	3	224.179066666667	218.207592592593	196.53022962963	670	3.819	1.34	20.234
248.954	0	23	response	242	3	224.179066666667	218.207592592593	196.53022962963	670	3.819	1.34	20.234
248.954	0.5	23	feedback	242	3	224.179066666667	218.207592592593	196.53022962963	670	3.819	1.34	20.234
254.487	4.00399999999999	24	valuation	178	3	239.681185185185	231.455796296296	222.511874074074	126	8.064	17.514	52.29
258.491	0.705000000000041	24	rating	178	3	239.681185185185	231.455796296296	222.511874074074	126	8.064	17.514	52.29
259.196	0	24	response	178	3	239.681185185185	231.455796296296	222.511874074074	126	8.064	17.514	52.29
259.196	0.5	24	feedback	178	3	239.681185185185	231.455796296296	222.511874074074	126	8.064	17.514	52.29
261.991	4.00400000000002	25	valuation	21	3	246.156955555556	225.426788888889	227.67477037037	80	0.04	0	77.6
265.995	0.879000000000019	25	rating	21	3	246.156955555556	225.426788888889	227.67477037037	80	0.04	0	77.6
266.874	0	25	response	21	3	246.156955555556	225.426788888889	227.67477037037	80	0.04	0	77.6
266.874	0.5	25	feedback	21	3	246.156955555556	225.426788888889	227.67477037037	80	0.04	0	77.6
271.378	4.00400000000002	26	valuation	498	1	238.902148148148	210.754192592593	192.474385185185	60	10.74	15.06	0.66
275.382	1.101	26	rating	498	1	238.902148148148	210.754192592593	192.474385185185	60	10.74	15.06	0.66
276.483	0	26	response	498	1	238.902148148148	210.754192592593	192.474385185185	60	10.74	15.06	0.66
276.483	0.5	26	feedback	498	1	238.902148148148	210.754192592593	192.474385185185	60	10.74	15.06	0.66
279.149	4.00400000000002	27	valuation	472	4	231.892751851852	227.653685185185	221.137677777778	160	3.2	3.2	0.96
283.153	0.579000000000008	27	rating	472	4	231.892751851852	227.653685185185	221.137677777778	160	3.2	3.2	0.96
283.732	0	27	response	472	4	231.892751851852	227.653685185185	221.137677777778	160	3.2	3.2	0.96
283.732	0.5	27	feedback	472	4	231.892751851852	227.653685185185	221.137677777778	160	3.2	3.2	0.96
290.965	4.00800000000004	28	valuation	130	1	239.940644444444	234.521937037037	224.427055555556	120	6	21.6	72
294.973	0.742999999999995	28	rating	130	1	239.940644444444	234.521937037037	224.427055555556	120	6	21.6	72
295.716	0	28	response	130	1	239.940644444444	234.521937037037	224.427055555556	120	6	21.6	72
295.716	0.5	28	feedback	130	1	239.940644444444	234.521937037037	224.427055555556	120	6	21.6	72
299.031	4.00400000000002	29	valuation	209	4	194.382207407407	176.692622222222	173.605392592593	150	1.5	0.75	9
303.035	0.936999999999955	29	rating	209	4	194.382207407407	176.692622222222	173.605392592593	150	1.5	0.75	9
303.972	0	29	response	209	4	194.382207407407	176.692622222222	173.605392592593	150	1.5	0.75	9
303.972	0.5	29	feedback	209	4	194.382207407407	176.692622222222	173.605392592593	150	1.5	0.75	9
310.581	4.017	30	valuation	346	4	228.343103703704	197.327307407407	175.748781481482	600	12	0.66	88.8
314.598	1.28199999999998	30	rating	346	4	228.343103703704	197.327307407407	175.748781481482	600	12	0.66	88.8
315.88	0	30	response	346	4	228.343103703704	197.327307407407	175.748781481482	600	12	0.66	88.8
315.88	0.5	30	feedback	346	4	228.343103703704	197.327307407407	175.748781481482	600	12	0.66	88.8
320.138	4.00400000000002	31	valuation	430	2	215.593651851852	222.744125925926	185.890007407407	650	6.5	1.3	10.205
324.142	0.853999999999985	31	rating	430	2	215.593651851852	222.744125925926	185.890007407407	650	6.5	1.3	10.205
324.996	0	31	response	430	2	215.593651851852	222.744125925926	185.890007407407	650	6.5	1.3	10.205
324.996	0.5	31	feedback	430	2	215.593651851852	222.744125925926	185.890007407407	650	6.5	1.3	10.205
333.428	4.00799999999998	32	valuation	132	2	233.748444444444	222.715862962963	197.658111111111	350	101.5	105	0
337.436	1.274	32	rating	132	2	233.748444444444	222.715862962963	197.658111111111	350	101.5	105	0
338.71	0	32	response	132	2	233.748444444444	222.715862962963	197.658111111111	350	101.5	105	0
338.71	0.5	32	feedback	132	2	233.748444444444	222.715862962963	197.658111111111	350	101.5	105	0
342.174	4.005	33	valuation	491	1	246.126614814815	236.71137037037	228.555840740741	350	10.255	28	106.61
346.179	0.652000000000044	33	rating	491	1	246.126614814815	236.71137037037	228.555840740741	350	10.255	28	106.61
346.831	0	33	response	491	1	246.126614814815	236.71137037037	228.555840740741	350	10.255	28	106.61
346.831	0.5	33	feedback	491	1	246.126614814815	236.71137037037	228.555840740741	350	10.255	28	106.61
350.826	4.005	34	valuation	239	1	238.285944444444	218.642877777778	197.982814814815	600	7.32	2.22	29.22
354.831	1.62899999999996	34	rating	239	1	238.285944444444	218.642877777778	197.982814814815	600	7.32	2.22	29.22
356.46	0	34	response	239	1	238.285944444444	218.642877777778	197.982814814815	600	7.32	2.22	29.22
356.46	0.5	34	feedback	239	1	238.285944444444	218.642877777778	197.982814814815	600	7.32	2.22	29.22
360.847	4.017	35	valuation	481	4	228.953885185185	223.616744444445	209.732762962963	70	4.13	5.159	20.727
364.864	0.746000000000038	35	rating	481	4	228.953885185185	223.616744444445	209.732762962963	70	4.13	5.159	20.727
365.61	0	35	response	481	4	228.953885185185	223.616744444445	209.732762962963	70	4.13	5.159	20.727
365.61	0.5	35	feedback	481	4	228.953885185185	223.616744444445	209.732762962963	70	4.13	5.159	20.727
372.08	4.005	36	valuation	211	4	200.386403703704	192.532311111111	195.237788888889	125	0.975	0.4875	6.6625
376.085	0.843999999999994	36	rating	211	4	200.386403703704	192.532311111111	195.237788888889	125	0.975	0.4875	6.6625
376.929	0	36	response	211	4	200.386403703704	192.532311111111	195.237788888889	125	0.975	0.4875	6.6625
376.929	0.5	36	feedback	211	4	200.386403703704	192.532311111111	195.237788888889	125	0.975	0.4875	6.6625
384.55	4.017	37	valuation	416	4	227.359877777778	204.405	182.503674074074	60	11.4	30	9.6
388.567	1.16300000000001	37	rating	416	4	227.359877777778	204.405	182.503674074074	60	11.4	30	9.6
389.73	0	37	response	416	4	227.359877777778	204.405	182.503674074074	60	11.4	30	9.6
389.73	0.5	37	feedback	416	4	227.359877777778	204.405	182.503674074074	60	11.4	30	9.6
393.597	4.00600000000003	38	valuation	70	4	243.692159259259	237.458762962963	224.141840740741	150	37.5	40.5	3
397.603	0.918000000000006	38	rating	70	4	243.692159259259	237.458762962963	224.141840740741	150	37.5	40.5	3
398.521	0	38	response	70	4	243.692159259259	237.458762962963	224.141840740741	150	37.5	40.5	3
398.521	0.5	38	feedback	70	4	243.692159259259	237.458762962963	224.141840740741	150	37.5	40.5	3
406.275	4.00800000000004	39	valuation	191	4	221.368203703704	201.390496296296	183.517292592593	210	23.1	52.5	2.1
410.283	0.645999999999958	39	rating	191	4	221.368203703704	201.390496296296	183.517292592593	210	23.1	52.5	2.1
410.929	0	39	response	191	4	221.368203703704	201.390496296296	183.517292592593	210	23.1	52.5	2.1
410.929	0.5	39	feedback	191	4	221.368203703704	201.390496296296	183.517292592593	210	23.1	52.5	2.1
417.918	4.00400000000002	40	valuation	532	1	239.080144444444	243.689548148148	246.449459259259	10000	0	0	0
421.922	1.73499999999996	40	rating	532	1	239.080144444444	243.689548148148	246.449459259259	10000	0	0	0
423.657	0	40	response	532	1	239.080144444444	243.689548148148	246.449459259259	10000	0	0	0
423.657	0.5	40	feedback	532	1	239.080144444444	243.689548148148	246.449459259259	10000	0	0	0
429.974	4.00400000000002	41	valuation	488	1	240.102651851852	228.914944444444	222.975966666667	80	2.88	17.12	42
433.978	1.33799999999997	41	rating	488	1	240.102651851852	228.914944444444	222.975966666667	80	2.88	17.12	42
435.316	0	41	response	488	1	240.102651851852	228.914944444444	222.975966666667	80	2.88	17.12	42
435.316	0.5	41	feedback	488	1	240.102651851852	228.914944444444	222.975966666667	80	2.88	17.12	42
441.262	4.01499999999999	42	valuation	221	2	247.777751851852	236.150540740741	200.482888888889	200	2	0.4	18.38
445.277	1.14699999999999	42	rating	221	2	247.777751851852	236.150540740741	200.482888888889	200	2	0.4	18.38
446.424	0	42	response	221	2	247.777751851852	236.150540740741	200.482888888889	200	2	0.4	18.38
446.424	0.5	42	feedback	221	2	247.777751851852	236.150540740741	200.482888888889	200	2	0.4	18.38
451.456	4.005	43	valuation	301	2	218.722792592593	191.507796296296	170.340588888889	300	66	18.3	0
455.461	1.36599999999999	43	rating	301	2	218.722792592593	191.507796296296	170.340588888889	300	66	18.3	0
456.827	0	43	response	301	2	218.722792592593	191.507796296296	170.340588888889	300	66	18.3	0
456.827	0.5	43	feedback	301	2	218.722792592593	191.507796296296	170.340588888889	300	66	18.3	0
462.904	4.00600000000003	44	valuation	445	3	249.848862962963	231.75077037037	169.403055555556	170	2.04	0.51	9.01
466.91	0.589999999999975	44	rating	445	3	249.848862962963	231.75077037037	169.403055555556	170	2.04	0.51	9.01
467.5	0	44	response	445	3	249.848862962963	231.75077037037	169.403055555556	170	2.04	0.51	9.01
467.5	0.5	44	feedback	445	3	249.848862962963	231.75077037037	169.403055555556	170	2.04	0.51	9.01
470.425	4.00399999999996	45	valuation	50	4	222.691766666667	203.613559259259	183.986959259259	750	46.05	120.15	208.2
474.429	1.14800000000002	45	rating	50	4	222.691766666667	203.613559259259	183.986959259259	750	46.05	120.15	208.2
475.577	0	45	response	50	4	222.691766666667	203.613559259259	183.986959259259	750	46.05	120.15	208.2
475.577	0.5	45	feedback	50	4	222.691766666667	203.613559259259	183.986959259259	750	46.05	120.15	208.2
483.097	4.00800000000004	46	valuation	95	4	225.511714814815	213.138085185185	207.214614814815	800	28	96	274.4
487.105	1.06	46	rating	95	4	225.511714814815	213.138085185185	207.214614814815	800	28	96	274.4
488.165	0	46	response	95	4	225.511714814815	213.138085185185	207.214614814815	800	28	96	274.4
488.165	0.5	46	feedback	95	4	225.511714814815	213.138085185185	207.214614814815	800	28	96	274.4
494.897	4.00400000000002	47	valuation	523	3	231.052318518518	216.852922222222	206.370418518518	160	8	24	64
498.901	1.50399999999996	47	rating	523	3	231.052318518518	216.852922222222	206.370418518518	160	8	24	64
500.405	0	47	response	523	3	231.052318518518	216.852922222222	206.370418518518	160	8	24	64
500.405	0.5	47	feedback	523	3	231.052318518518	216.852922222222	206.370418518518	160	8	24	64
