onset	duration	trial_id	trial_type	image_id	rating_value	red	green	blue	gram	protein	fat	carb
10.04	4.006	1	valuation	251	3	227.642211111111	230.778122222222	209.628088888889	1300	12.09	2.99	12.09
14.046	0.727	1	rating	251	3	227.642211111111	230.778122222222	209.628088888889	1300	12.09	2.99	12.09
14.773	0	1	response	251	3	227.642211111111	230.778122222222	209.628088888889	1300	12.09	2.99	12.09
14.773	0.5	1	feedback	251	3	227.642211111111	230.778122222222	209.628088888889	1300	12.09	2.99	12.09
21.253	4.005	2	valuation	209	4	194.382207407407	176.692622222222	173.605392592593	150	1.5	0.75	9
25.258	0.779	2	rating	209	4	194.382207407407	176.692622222222	173.605392592593	150	1.5	0.75	9
26.037	0	2	response	209	4	194.382207407407	176.692622222222	173.605392592593	150	1.5	0.75	9
26.037	0.5	2	feedback	209	4	194.382207407407	176.692622222222	173.605392592593	150	1.5	0.75	9
33.789	4.005	3	valuation	127	4	201.495474074074	189.87512962963	183.791755555556	65	3.51	10.01	33.475
37.794	0.799000000000007	3	rating	127	4	201.495474074074	189.87512962963	183.791755555556	65	3.51	10.01	33.475
38.593	0	3	response	127	4	201.495474074074	189.87512962963	183.791755555556	65	3.51	10.01	33.475
38.593	0.5	3	feedback	127	4	201.495474074074	189.87512962963	183.791755555556	65	3.51	10.01	33.475
46.029	4.005	4	valuation	440	3	241.811451851852	219.400740740741	193.191566666667	1100	90.2	13.2	536.8
50.034	0.870000000000005	4	rating	440	3	241.811451851852	219.400740740741	193.191566666667	1100	90.2	13.2	536.8
50.904	0	4	response	440	3	241.811451851852	219.400740740741	193.191566666667	1100	90.2	13.2	536.8
50.904	0.5	4	feedback	440	3	241.811451851852	219.400740740741	193.191566666667	1100	90.2	13.2	536.8
56.176	4.005	5	valuation	414	3	232.920707407407	229.204237037037	206.009507407407	80	1.744	0.192	5.6
60.181	0.782000000000004	5	rating	414	3	232.920707407407	229.204237037037	206.009507407407	80	1.744	0.192	5.6
60.963	0	5	response	414	3	232.920707407407	229.204237037037	206.009507407407	80	1.744	0.192	5.6
60.963	0.5	5	feedback	414	3	232.920707407407	229.204237037037	206.009507407407	80	1.744	0.192	5.6
67.571	4.004	6	valuation	283	3	223.747351851852	218.659118518519	190.168366666667	250	5	58.75	1
71.575	1.03	6	rating	283	3	223.747351851852	218.659118518519	190.168366666667	250	5	58.75	1
72.605	0	6	response	283	3	223.747351851852	218.659118518519	190.168366666667	250	5	58.75	1
72.605	0.5	6	feedback	283	3	223.747351851852	218.659118518519	190.168366666667	250	5	58.75	1
76.08	4.005	7	valuation	210	3	221.178611111111	200.222703703704	200.344096296296	200	2.4	0.6	9.2
80.085	1.28100000000001	7	rating	210	3	221.178611111111	200.222703703704	200.344096296296	200	2.4	0.6	9.2
81.366	0	7	response	210	3	221.178611111111	200.222703703704	200.344096296296	200	2.4	0.6	9.2
81.366	0.5	7	feedback	210	3	221.178611111111	200.222703703704	200.344096296296	200	2.4	0.6	9.2
87.42	4.005	8	valuation	298	4	216.774418518519	213.430107407407	212.563122222222	11.33	0.333102	2.331714	8.329816
91.425	0.567000000000007	8	rating	298	4	216.774418518519	213.430107407407	212.563122222222	11.33	0.333102	2.331714	8.329816
91.992	0	8	response	298	4	216.774418518519	213.430107407407	212.563122222222	11.33	0.333102	2.331714	8.329816
91.992	0.5	8	feedback	298	4	216.774418518519	213.430107407407	212.563122222222	11.33	0.333102	2.331714	8.329816
95.308	4.00399999999999	9	valuation	288	3	243.726974074074	208.497011111111	177.056444444444	80	0.992	0.128	6.008
99.312	1.76300000000001	9	rating	288	3	243.726974074074	208.497011111111	177.056444444444	80	0.992	0.128	6.008
101.075	0	9	response	288	3	243.726974074074	208.497011111111	177.056444444444	80	0.992	0.128	6.008
101.075	0.5	9	feedback	288	3	243.726974074074	208.497011111111	177.056444444444	80	0.992	0.128	6.008
107.288	4.006	10	valuation	505	2	228.170044444444	209.178259259259	184.446788888889	39	1.17	3.9	26.91
111.294	0.734000000000009	10	rating	505	2	228.170044444444	209.178259259259	184.446788888889	39	1.17	3.9	26.91
112.028	0	10	response	505	2	228.170044444444	209.178259259259	184.446788888889	39	1.17	3.9	26.91
112.028	0.5	10	feedback	505	2	228.170044444444	209.178259259259	184.446788888889	39	1.17	3.9	26.91
119.127	4.004	11	valuation	497	2	235.62327037037	212.055107407407	196.81682962963	60	12.48	13.08	0.54
123.131	1.673	11	rating	497	2	235.62327037037	212.055107407407	196.81682962963	60	12.48	13.08	0.54
124.804	0	11	response	497	2	235.62327037037	212.055107407407	196.81682962963	60	12.48	13.08	0.54
124.804	0.5	11	feedback	497	2	235.62327037037	212.055107407407	196.81682962963	60	12.48	13.08	0.54
131.12	4.00399999999999	12	valuation	466	3	222.330807407407	236.305674074074	172.409511111111	220	0.748	0	25.146
135.124	0.705000000000013	12	rating	466	3	222.330807407407	236.305674074074	172.409511111111	220	0.748	0	25.146
135.829	0	12	response	466	3	222.330807407407	236.305674074074	172.409511111111	220	0.748	0	25.146
135.829	0.5	12	feedback	466	3	222.330807407407	236.305674074074	172.409511111111	220	0.748	0	25.146
143.839	4.00300000000001	13	valuation	534	4	241.210433333333	235.60722962963	202.995262962963	130	1.04	0.546	16.38
147.842	0.628999999999991	13	rating	534	4	241.210433333333	235.60722962963	202.995262962963	130	1.04	0.546	16.38
148.471	0	13	response	534	4	241.210433333333	235.60722962963	202.995262962963	130	1.04	0.546	16.38
148.471	0.5	13	feedback	534	4	241.210433333333	235.60722962963	202.995262962963	130	1.04	0.546	16.38
153.249	4.005	14	valuation	411	4	211.580766666667	201.367574074074	172.838374074074	380	13.414	1.444	19
157.254	1.577	14	rating	411	4	211.580766666667	201.367574074074	172.838374074074	380	13.414	1.444	19
158.831	0	14	response	411	4	211.580766666667	201.367574074074	172.838374074074	380	13.414	1.444	19
158.831	0.5	14	feedback	411	4	211.580766666667	201.367574074074	172.838374074074	380	13.414	1.444	19
161.888	4.00399999999999	15	valuation	312	2	237.817114814815	229.681992592593	220.793374074074	235	31.114	3.4075	9.4
165.892	0.953000000000003	15	rating	312	2	237.817114814815	229.681992592593	220.793374074074	235	31.114	3.4075	9.4
166.845	0	15	response	312	2	237.817114814815	229.681992592593	220.793374074074	235	31.114	3.4075	9.4
166.845	0.5	15	feedback	312	2	237.817114814815	229.681992592593	220.793374074074	235	31.114	3.4075	9.4
173.582	4.00400000000002	16	valuation	501	4	222.844892592593	203.470518518518	188.602844444444	32	1.504	8.96	17.28
177.586	0.757999999999981	16	rating	501	4	222.844892592593	203.470518518518	188.602844444444	32	1.504	8.96	17.28
178.344	0	16	response	501	4	222.844892592593	203.470518518518	188.602844444444	32	1.504	8.96	17.28
178.344	0.5	16	feedback	501	4	222.844892592593	203.470518518518	188.602844444444	32	1.504	8.96	17.28
182.052	4.00400000000002	17	valuation	374	4	229.180462962963	210.759655555556	188.154422222222	65	4.03	8.775	29.77
186.056	0.631999999999977	17	rating	374	4	229.180462962963	210.759655555556	188.154422222222	65	4.03	8.775	29.77
186.688	0	17	response	374	4	229.180462962963	210.759655555556	188.154422222222	65	4.03	8.775	29.77
186.688	0.5	17	feedback	374	4	229.180462962963	210.759655555556	188.154422222222	65	4.03	8.775	29.77
189.613	4.00700000000001	18	valuation	336	1	180.357381481482	181.934185185185	185.217703703704	20	0.862	0.18	17.232
193.62	2.18099999999998	18	rating	336	1	180.357381481482	181.934185185185	185.217703703704	20	0.862	0.18	17.232
195.801	0	18	response	336	1	180.357381481482	181.934185185185	185.217703703704	20	0.862	0.18	17.232
195.801	0.5	18	feedback	336	1	180.357381481482	181.934185185185	185.217703703704	20	0.862	0.18	17.232
200.683	4.00400000000002	19	valuation	504	3	237.865848148148	215.573244444445	178.105	10	0.57	3.07	5.73
204.687	1.124	19	rating	504	3	237.865848148148	215.573244444445	178.105	10	0.57	3.07	5.73
205.811	0	19	response	504	3	237.865848148148	215.573244444445	178.105	10	0.57	3.07	5.73
205.811	0.5	19	feedback	504	3	237.865848148148	215.573244444445	178.105	10	0.57	3.07	5.73
212.649	4.00800000000001	20	valuation	429	4	244.330088888889	229.853285185185	184.999911111111	170	2.04	0.51	9.01
216.657	0.669999999999987	20	rating	429	4	244.330088888889	229.853285185185	184.999911111111	170	2.04	0.51	9.01
217.327	0	20	response	429	4	244.330088888889	229.853285185185	184.999911111111	170	2.04	0.51	9.01
217.327	0.5	20	feedback	429	4	244.330088888889	229.853285185185	184.999911111111	170	2.04	0.51	9.01
221.557	4.00400000000002	21	valuation	352	3	241.615707407407	226.243751851852	210.74107037037	900	65.7	6.3	463.5
225.561	0.989999999999981	21	rating	352	3	241.615707407407	226.243751851852	210.74107037037	900	65.7	6.3	463.5
226.551	0	21	response	352	3	241.615707407407	226.243751851852	210.74107037037	900	65.7	6.3	463.5
226.551	0.5	21	feedback	352	3	241.615707407407	226.243751851852	210.74107037037	900	65.7	6.3	463.5
229.216	4.005	22	valuation	205	2	234.69972962963	229.598588888889	221.566211111111	28	3.4608	0.2184	6.692
233.221	1.36199999999999	22	rating	205	2	234.69972962963	229.598588888889	221.566211111111	28	3.4608	0.2184	6.692
234.583	0	22	response	205	2	234.69972962963	229.598588888889	221.566211111111	28	3.4608	0.2184	6.692
234.583	0.5	22	feedback	205	2	234.69972962963	229.598588888889	221.566211111111	28	3.4608	0.2184	6.692
242.074	4.00399999999999	23	valuation	456	4	245.849866666667	237.255348148148	220.3531	500	2.5	0	15.6
246.078	0.657000000000011	23	rating	456	4	245.849866666667	237.255348148148	220.3531	500	2.5	0	15.6
246.735	0	23	response	456	4	245.849866666667	237.255348148148	220.3531	500	2.5	0	15.6
246.735	0.5	23	feedback	456	4	245.849866666667	237.255348148148	220.3531	500	2.5	0	15.6
251.357	4.00399999999999	24	valuation	143	4	215.891240740741	195.539033333333	177.243351851852	800	45.6	40.8	104
255.361	0.713000000000022	24	rating	143	4	215.891240740741	195.539033333333	177.243351851852	800	45.6	40.8	104
256.074	0	24	response	143	4	215.891240740741	195.539033333333	177.243351851852	800	45.6	40.8	104
256.074	0.5	24	feedback	143	4	215.891240740741	195.539033333333	177.243351851852	800	45.6	40.8	104
261.607	4.00399999999996	25	valuation	45	4	206.768825925926	193.444144444444	168.1402	250	25.975	24.875	62.525
265.611	0.793000000000006	25	rating	45	4	206.768825925926	193.444144444444	168.1402	250	25.975	24.875	62.525
266.404	0	25	response	45	4	206.768825925926	193.444144444444	168.1402	250	25.975	24.875	62.525
266.404	0.5	25	feedback	45	4	206.768825925926	193.444144444444	168.1402	250	25.975	24.875	62.525
268.937	4.00399999999996	26	valuation	120	4	244.170507407407	226.092925925926	203.564033333333	280	14.56	52.64	100.52
272.941	0.561000000000035	26	rating	120	4	244.170507407407	226.092925925926	203.564033333333	280	14.56	52.64	100.52
273.502	0	26	response	120	4	244.170507407407	226.092925925926	203.564033333333	280	14.56	52.64	100.52
273.502	0.5	26	feedback	120	4	244.170507407407	226.092925925926	203.564033333333	280	14.56	52.64	100.52
282.056	4.00400000000002	27	valuation	178	4	239.681185185185	231.455796296296	222.511874074074	126	8.064	17.514	52.29
286.06	0.531999999999982	27	rating	178	4	239.681185185185	231.455796296296	222.511874074074	126	8.064	17.514	52.29
286.592	0	27	response	178	4	239.681185185185	231.455796296296	222.511874074074	126	8.064	17.514	52.29
286.592	0.5	27	feedback	178	4	239.681185185185	231.455796296296	222.511874074074	126	8.064	17.514	52.29
292.545	4.00399999999996	28	valuation	542	3	221.90877037037	218.548407407407	205.845562962963	250	4.75	58.75	1
296.549	1.137	28	rating	542	3	221.90877037037	218.548407407407	205.845562962963	250	4.75	58.75	1
297.686	0	28	response	542	3	221.90877037037	218.548407407407	205.845562962963	250	4.75	58.75	1
297.686	0.5	28	feedback	542	3	221.90877037037	218.548407407407	205.845562962963	250	4.75	58.75	1
303.089	4.00400000000002	29	valuation	7	4	231.251285185185	211.45102962963	195.076322222222	300	21.24	100.71	134.58
307.093	0.709000000000003	29	rating	7	4	231.251285185185	211.45102962963	195.076322222222	300	21.24	100.71	134.58
307.802	0	29	response	7	4	231.251285185185	211.45102962963	195.076322222222	300	21.24	100.71	134.58
307.802	0.5	29	feedback	7	4	231.251285185185	211.45102962963	195.076322222222	300	21.24	100.71	134.58
310.597	4.00400000000002	30	valuation	484	4	211.337140740741	193.628922222222	178.162685185185	440	44.88	6.292	33.924
314.601	0.675000000000011	30	rating	484	4	211.337140740741	193.628922222222	178.162685185185	440	44.88	6.292	33.924
315.276	0	30	response	484	4	211.337140740741	193.628922222222	178.162685185185	440	44.88	6.292	33.924
315.276	0.5	30	feedback	484	4	211.337140740741	193.628922222222	178.162685185185	440	44.88	6.292	33.924
318.872	4.00299999999999	31	valuation	136	4	231.385133333333	225.913540740741	211.260633333333	100	3.1	9.3	29.9
322.875	0.601999999999975	31	rating	136	4	231.385133333333	225.913540740741	211.260633333333	100	3.1	9.3	29.9
323.477	0	31	response	136	4	231.385133333333	225.913540740741	211.260633333333	100	3.1	9.3	29.9
323.477	0.5	31	feedback	136	4	231.385133333333	225.913540740741	211.260633333333	100	3.1	9.3	29.9
327.345	4.00399999999996	32	valuation	111	3	238.515111111111	232.673981481482	228.944255555556	100	8.4	36	49
331.349	1.53500000000003	32	rating	111	3	238.515111111111	232.673981481482	228.944255555556	100	8.4	36	49
332.884	0	32	response	111	3	238.515111111111	232.673981481482	228.944255555556	100	8.4	36	49
332.884	0.5	32	feedback	111	3	238.515111111111	232.673981481482	228.944255555556	100	8.4	36	49
341.156	4.00400000000002	33	valuation	60	3	233.02332962963	218.918403703704	196.226703703704	220	8.25	37.488	75.009
345.16	0.790999999999997	33	rating	60	3	233.02332962963	218.918403703704	196.226703703704	220	8.25	37.488	75.009
345.951	0	33	response	60	3	233.02332962963	218.918403703704	196.226703703704	220	8.25	37.488	75.009
345.951	0.5	33	feedback	60	3	233.02332962963	218.918403703704	196.226703703704	220	8.25	37.488	75.009
351.776	4.005	34	valuation	22	4	238.318485185185	221.448785185185	186.011985185185	220	8.25	37.488	75.009
355.781	0.733000000000004	34	rating	22	4	238.318485185185	221.448785185185	186.011985185185	220	8.25	37.488	75.009
356.514	0	34	response	22	4	238.318485185185	221.448785185185	186.011985185185	220	8.25	37.488	75.009
356.514	0.5	34	feedback	22	4	238.318485185185	221.448785185185	186.011985185185	220	8.25	37.488	75.009
363.481	4.00799999999998	35	valuation	486	3	228.249133333333	213.26007037037	195.862514814815	540	50.274	64.638	103.464
367.489	1.221	35	rating	486	3	228.249133333333	213.26007037037	195.862514814815	540	50.274	64.638	103.464
368.71	0	35	response	486	3	228.249133333333	213.26007037037	195.862514814815	540	50.274	64.638	103.464
368.71	0.5	35	feedback	486	3	228.249133333333	213.26007037037	195.862514814815	540	50.274	64.638	103.464
377.114	4.00400000000002	36	valuation	427	2	245.42262962963	227.004585185185	206.62447037037	15	2.16	9.375	1.59
381.118	0.685999999999979	36	rating	427	2	245.42262962963	227.004585185185	206.62447037037	15	2.16	9.375	1.59
381.804	0	36	response	427	2	245.42262962963	227.004585185185	206.62447037037	15	2.16	9.375	1.59
381.804	0.5	36	feedback	427	2	245.42262962963	227.004585185185	206.62447037037	15	2.16	9.375	1.59
385.01	4.00400000000002	37	valuation	121	3	241.824925925926	230.59102962963	217.331840740741	10	0.68	3.057	5.332
389.014	0.558999999999969	37	rating	121	3	241.824925925926	230.59102962963	217.331840740741	10	0.68	3.057	5.332
389.573	0	37	response	121	3	241.824925925926	230.59102962963	217.331840740741	10	0.68	3.057	5.332
389.573	0.5	37	feedback	121	3	241.824925925926	230.59102962963	217.331840740741	10	0.68	3.057	5.332
396.824	4.00599999999997	38	valuation	71	4	239.094714814815	231.21037037037	209.720744444444	600	156	175.2	0
400.83	0.824000000000012	38	rating	71	4	239.094714814815	231.21037037037	209.720744444444	600	156	175.2	0
401.654	0	38	response	71	4	239.094714814815	231.21037037037	209.720744444444	600	156	175.2	0
401.654	0.5	38	feedback	71	4	239.094714814815	231.21037037037	209.720744444444	600	156	175.2	0
406.045	4.00399999999996	39	valuation	171	4	225.838885185185	222.008844444444	220.679944444444	19.5	0.585	1.95	13.455
410.049	0.961000000000013	39	rating	171	4	225.838885185185	222.008844444444	220.679944444444	19.5	0.585	1.95	13.455
411.01	0	39	response	171	4	225.838885185185	222.008844444444	220.679944444444	19.5	0.585	1.95	13.455
411.01	0.5	39	feedback	171	4	225.838885185185	222.008844444444	220.679944444444	19.5	0.585	1.95	13.455
416.048	4.00400000000002	40	valuation	529	4	208.136585185185	199.001888888889	165.4134	300	12	1.2	16.5
420.052	0.551999999999964	40	rating	529	4	208.136585185185	199.001888888889	165.4134	300	12	1.2	16.5
420.604	0	40	response	529	4	208.136585185185	199.001888888889	165.4134	300	12	1.2	16.5
420.604	0.5	40	feedback	529	4	208.136585185185	199.001888888889	165.4134	300	12	1.2	16.5
424.724	4.00400000000002	41	valuation	517	4	246.386655555556	237.275566666667	210.835722222222	150	40.5	48	0
428.728	0.644999999999982	41	rating	517	4	246.386655555556	237.275566666667	210.835722222222	150	40.5	48	0
429.373	0	41	response	517	4	246.386655555556	237.275566666667	210.835722222222	150	40.5	48	0
429.373	0.5	41	feedback	517	4	246.386655555556	237.275566666667	210.835722222222	150	40.5	48	0
433.343	4.00399999999996	42	valuation	96	4	223.744855555556	208.222059259259	190.899051851852	500	29.5	105	260
437.347	1.53399999999999	42	rating	96	4	223.744855555556	208.222059259259	190.899051851852	500	29.5	105	260
438.881	0	42	response	96	4	223.744855555556	208.222059259259	190.899051851852	500	29.5	105	260
438.881	0.5	42	feedback	96	4	223.744855555556	208.222059259259	190.899051851852	500	29.5	105	260
443.369	4.005	43	valuation	146	4	242.953496296296	228.415333333333	203.3177	100	6.8	9.4	34.3
447.374	0.779999999999973	43	rating	146	4	242.953496296296	228.415333333333	203.3177	100	6.8	9.4	34.3
448.154	0	43	response	146	4	242.953496296296	228.415333333333	203.3177	100	6.8	9.4	34.3
448.154	0.5	43	feedback	146	4	242.953496296296	228.415333333333	203.3177	100	6.8	9.4	34.3
453.299	4.00400000000002	44	valuation	417	3	205.155022222222	227.402596296296	179.027196296296	80	0	0	5.6
457.303	1.12700000000001	44	rating	417	3	205.155022222222	227.402596296296	179.027196296296	80	0	0	5.6
458.43	0	44	response	417	3	205.155022222222	227.402596296296	179.027196296296	80	0	0	5.6
458.43	0.5	44	feedback	417	3	205.155022222222	227.402596296296	179.027196296296	80	0	0	5.6
466.05	4.00399999999996	45	valuation	389	4	236.718166666667	231.179922222222	208.921581481481	1200	10.8	3.6	100.8
470.054	0.906000000000006	45	rating	389	4	236.718166666667	231.179922222222	208.921581481481	1200	10.8	3.6	100.8
470.96	0	45	response	389	4	236.718166666667	231.179922222222	208.921581481481	1200	10.8	3.6	100.8
470.96	0.5	45	feedback	389	4	236.718166666667	231.179922222222	208.921581481481	1200	10.8	3.6	100.8
478.862	4.00799999999998	46	valuation	234	4	220.932896296296	199.742540740741	191.633251851852	30	0.234	0.117	1.599
482.87	0.706000000000017	46	rating	234	4	220.932896296296	199.742540740741	191.633251851852	30	0.234	0.117	1.599
483.576	0	46	response	234	4	220.932896296296	199.742540740741	191.633251851852	30	0.234	0.117	1.599
483.576	0.5	46	feedback	234	4	220.932896296296	199.742540740741	191.633251851852	30	0.234	0.117	1.599
491.72	4.00399999999996	47	valuation	245	4	236.351107407407	213.134562962963	179.092744444444	560	4.032	0.784	37.072
495.724	0.870000000000005	47	rating	245	4	236.351107407407	213.134562962963	179.092744444444	560	4.032	0.784	37.072
496.594	0	47	response	245	4	236.351107407407	213.134562962963	179.092744444444	560	4.032	0.784	37.072
496.594	0.5	47	feedback	245	4	236.351107407407	213.134562962963	179.092744444444	560	4.032	0.784	37.072
