onset	duration	trial_id	trial_type	image_id	rating_value	red	green	blue	gram	protein	fat	carb
10.019	4.004	1	valuation	206	3	234.499233333333	210.575355555556	207.224118518518	100	1.2	0.3	4.6
14.023	0.6	1	rating	206	3	234.499233333333	210.575355555556	207.224118518518	100	1.2	0.3	4.6
14.623	0	1	response	206	3	234.499233333333	210.575355555556	207.224118518518	100	1.2	0.3	4.6
14.623	0.5	1	feedback	206	3	234.499233333333	210.575355555556	207.224118518518	100	1.2	0.3	4.6
18.49	4.005	2	valuation	511	1	224.207688888889	218.813522222222	210.636292592593	17	0.765	5.78	9.095
22.495	1.237	2	rating	511	1	224.207688888889	218.813522222222	210.636292592593	17	0.765	5.78	9.095
23.732	0	2	response	511	1	224.207688888889	218.813522222222	210.636292592593	17	0.765	5.78	9.095
23.732	0.5	2	feedback	511	1	224.207688888889	218.813522222222	210.636292592593	17	0.765	5.78	9.095
30.049	4.007	3	valuation	110	4	230.257825925926	215.939066666667	184.569088888889	50	10	25	10.5
34.056	0.532000000000004	3	rating	110	4	230.257825925926	215.939066666667	184.569088888889	50	10	25	10.5
34.588	0	3	response	110	4	230.257825925926	215.939066666667	184.569088888889	50	10	25	10.5
34.588	0.5	3	feedback	110	4	230.257825925926	215.939066666667	184.569088888889	50	10	25	10.5
37.305	4.004	4	valuation	453	4	237.348340740741	206.510103703704	179.368751851852	125	0.875	0.125	11.75
41.309	0.475999999999999	4	rating	453	4	237.348340740741	206.510103703704	179.368751851852	125	0.875	0.125	11.75
41.785	0	4	response	453	4	237.348340740741	206.510103703704	179.368751851852	125	0.875	0.125	11.75
41.785	0.5	4	feedback	453	4	237.348340740741	206.510103703704	179.368751851852	125	0.875	0.125	11.75
46.535	4.005	5	valuation	109	4	228.630974074074	211.481348148148	167.359840740741	50	14	23.5	5.5
50.54	0.852000000000004	5	rating	109	4	228.630974074074	211.481348148148	167.359840740741	50	14	23.5	5.5
51.392	0	5	response	109	4	228.630974074074	211.481348148148	167.359840740741	50	14	23.5	5.5
51.392	0.5	5	feedback	109	4	228.630974074074	211.481348148148	167.359840740741	50	14	23.5	5.5
54.84	4.004	6	valuation	17	3	210.764488888889	185.949807407407	160.755022222222	720	38.448	64.8	146.16
58.844	0.897999999999996	6	rating	17	3	210.764488888889	185.949807407407	160.755022222222	720	38.448	64.8	146.16
59.742	0	6	response	17	3	210.764488888889	185.949807407407	160.755022222222	720	38.448	64.8	146.16
59.742	0.5	6	feedback	17	3	210.764488888889	185.949807407407	160.755022222222	720	38.448	64.8	146.16
62.669	4.00500000000001	7	valuation	342	1	202.271148148148	204.320740740741	175.546944444444	750	15	0.9	19.5
66.674	0.879999999999995	7	rating	342	1	202.271148148148	204.320740740741	175.546944444444	750	15	0.9	19.5
67.554	0	7	response	342	1	202.271148148148	204.320740740741	175.546944444444	750	15	0.9	19.5
67.554	0.5	7	feedback	342	1	202.271148148148	204.320740740741	175.546944444444	750	15	0.9	19.5
74.655	4.004	8	valuation	564	4	230.5132	217.013485185185	203.650844444444	75	12.975	0.8025	17.4
78.659	0.801999999999992	8	rating	564	4	230.5132	217.013485185185	203.650844444444	75	12.975	0.8025	17.4
79.461	0	8	response	564	4	230.5132	217.013485185185	203.650844444444	75	12.975	0.8025	17.4
79.461	0.5	8	feedback	564	4	230.5132	217.013485185185	203.650844444444	75	12.975	0.8025	17.4
84.115	4.004	9	valuation	484	3	211.337140740741	193.628922222222	178.162685185185	440	44.88	6.292	33.924
88.119	1.044	9	rating	484	3	211.337140740741	193.628922222222	178.162685185185	440	44.88	6.292	33.924
89.163	0	9	response	484	3	211.337140740741	193.628922222222	178.162685185185	440	44.88	6.292	33.924
89.163	0.5	9	feedback	484	3	211.337140740741	193.628922222222	178.162685185185	440	44.88	6.292	33.924
92.742	4.005	10	valuation	391	4	208.474548148148	200.291181481481	200.220840740741	300	2.1	0.9	46.8
96.747	0.680999999999997	10	rating	391	4	208.474548148148	200.291181481481	200.220840740741	300	2.1	0.9	46.8
97.428	0	10	response	391	4	208.474548148148	200.291181481481	200.220840740741	300	2.1	0.9	46.8
97.428	0.5	10	feedback	391	4	208.474548148148	200.291181481481	200.220840740741	300	2.1	0.9	46.8
100.746	4.004	11	valuation	236	2	224.288003703704	218.802785185185	216.243685185185	50	3.5	0.1	39
104.75	0.560000000000002	11	rating	236	2	224.288003703704	218.802785185185	216.243685185185	50	3.5	0.1	39
105.31	0	11	response	236	2	224.288003703704	218.802785185185	216.243685185185	50	3.5	0.1	39
105.31	0.5	11	feedback	236	2	224.288003703704	218.802785185185	216.243685185185	50	3.5	0.1	39
109.279	4.00500000000001	12	valuation	480	2	235.824840740741	211.983703703704	198.319703703704	570	42.18	7.98	288.42
113.284	1.33199999999999	12	rating	480	2	235.824840740741	211.983703703704	198.319703703704	570	42.18	7.98	288.42
114.616	0	12	response	480	2	235.824840740741	211.983703703704	198.319703703704	570	42.18	7.98	288.42
114.616	0.5	12	feedback	480	2	235.824840740741	211.983703703704	198.319703703704	570	42.18	7.98	288.42
120.442	4.00700000000001	13	valuation	302	3	247.920840740741	207.924792592593	173.305907407407	180	25.2	15.804	25.38
124.449	1.053	13	rating	302	3	247.920840740741	207.924792592593	173.305907407407	180	25.2	15.804	25.38
125.502	0	13	response	302	3	247.920840740741	207.924792592593	173.305907407407	180	25.2	15.804	25.38
125.502	0.5	13	feedback	302	3	247.920840740741	207.924792592593	173.305907407407	180	25.2	15.804	25.38
129.601	4.005	14	valuation	323	2	228.088137037037	220.723218518519	203.94212962963	377	54.0995	22.0168	19.4909
133.606	1.06100000000001	14	rating	323	2	228.088137037037	220.723218518519	203.94212962963	377	54.0995	22.0168	19.4909
134.667	0	14	response	323	2	228.088137037037	220.723218518519	203.94212962963	377	54.0995	22.0168	19.4909
134.667	0.5	14	feedback	323	2	228.088137037037	220.723218518519	203.94212962963	377	54.0995	22.0168	19.4909
139.963	4.00400000000002	15	valuation	327	3	238.744462962963	227.05712962963	175.484018518519	225	4.635	5.6025	25.7625
143.967	0.980999999999995	15	rating	327	3	238.744462962963	227.05712962963	175.484018518519	225	4.635	5.6025	25.7625
144.948	0	15	response	327	3	238.744462962963	227.05712962963	175.484018518519	225	4.635	5.6025	25.7625
144.948	0.5	15	feedback	327	3	238.744462962963	227.05712962963	175.484018518519	225	4.635	5.6025	25.7625
148.133	4.00399999999999	16	valuation	210	4	221.178611111111	200.222703703704	200.344096296296	200	2.4	0.6	9.2
152.137	0.84899999999999	16	rating	210	4	221.178611111111	200.222703703704	200.344096296296	200	2.4	0.6	9.2
152.986	0	16	response	210	4	221.178611111111	200.222703703704	200.344096296296	200	2.4	0.6	9.2
152.986	0.5	16	feedback	210	4	221.178611111111	200.222703703704	200.344096296296	200	2.4	0.6	9.2
160.477	4.00399999999999	17	valuation	95	2	225.511714814815	213.138085185185	207.214614814815	800	28	96	274.4
164.481	1.62800000000001	17	rating	95	2	225.511714814815	213.138085185185	207.214614814815	800	28	96	274.4
166.109	0	17	response	95	2	225.511714814815	213.138085185185	207.214614814815	800	28	96	274.4
166.109	0.5	17	feedback	95	2	225.511714814815	213.138085185185	207.214614814815	800	28	96	274.4
170.625	4.00299999999999	18	valuation	567	4	227.464122222222	202.702303703704	182.334788888889	120	7.8	6.36	2.4
174.628	0.859000000000009	18	rating	567	4	227.464122222222	202.702303703704	182.334788888889	120	7.8	6.36	2.4
175.487	0	18	response	567	4	227.464122222222	202.702303703704	182.334788888889	120	7.8	6.36	2.4
175.487	0.5	18	feedback	567	4	227.464122222222	202.702303703704	182.334788888889	120	7.8	6.36	2.4
181.043	4.00399999999999	19	valuation	382	1	224.746866666667	217.657692592593	173.595055555556	25	0.16	0.045	0.455
185.047	0.584000000000003	19	rating	382	1	224.746866666667	217.657692592593	173.595055555556	25	0.16	0.045	0.455
185.631	0	19	response	382	1	224.746866666667	217.657692592593	173.595055555556	25	0.16	0.045	0.455
185.631	0.5	19	feedback	382	1	224.746866666667	217.657692592593	173.595055555556	25	0.16	0.045	0.455
191.689	4.00400000000002	20	valuation	161	2	229.495648148148	223.318425925926	216.838081481481	49.8	1.7928	8.3664	31.7226
195.693	0.748999999999995	20	rating	161	2	229.495648148148	223.318425925926	216.838081481481	49.8	1.7928	8.3664	31.7226
196.442	0	20	response	161	2	229.495648148148	223.318425925926	216.838081481481	49.8	1.7928	8.3664	31.7226
196.442	0.5	20	feedback	161	2	229.495648148148	223.318425925926	216.838081481481	49.8	1.7928	8.3664	31.7226
200.149	4.00299999999999	21	valuation	417	2	205.155022222222	227.402596296296	179.027196296296	80	0	0	5.6
204.152	1.24100000000001	21	rating	417	2	205.155022222222	227.402596296296	179.027196296296	80	0	0	5.6
205.393	0	21	response	417	2	205.155022222222	227.402596296296	179.027196296296	80	0	0	5.6
205.393	0.5	21	feedback	417	2	205.155022222222	227.402596296296	179.027196296296	80	0	0	5.6
213.405	4.00399999999999	22	valuation	160	4	225.912862962963	218.56677037037	216.687185185185	50	4.2	10.75	32.4
217.409	0.811000000000007	22	rating	160	4	225.912862962963	218.56677037037	216.687185185185	50	4.2	10.75	32.4
218.22	0	22	response	160	4	225.912862962963	218.56677037037	216.687185185185	50	4.2	10.75	32.4
218.22	0.5	22	feedback	160	4	225.912862962963	218.56677037037	216.687185185185	50	4.2	10.75	32.4
226.635	4.00900000000001	23	valuation	156	3	241.581185185185	221.234507407407	201.485144444444	50	3.75	3.5	26
230.644	1.495	23	rating	156	3	241.581185185185	221.234507407407	201.485144444444	50	3.75	3.5	26
232.139	0	23	response	156	3	241.581185185185	221.234507407407	201.485144444444	50	3.75	3.5	26
232.139	0.5	23	feedback	156	3	241.581185185185	221.234507407407	201.485144444444	50	3.75	3.5	26
236.5	4.00399999999999	24	valuation	403	2	230.25037037037	201.999262962963	185.160559259259	350	35	42	56
240.504	1.233	24	rating	403	2	230.25037037037	201.999262962963	185.160559259259	350	35	42	56
241.737	0	24	response	403	2	230.25037037037	201.999262962963	185.160559259259	350	35	42	56
241.737	0.5	24	feedback	403	2	230.25037037037	201.999262962963	185.160559259259	350	35	42	56
247.937	4.00299999999999	25	valuation	503	3	241.178181481481	220.964318518518	182.183774074074	60	3.42	18.42	34.38
251.94	0.798000000000002	25	rating	503	3	241.178181481481	220.964318518518	182.183774074074	60	3.42	18.42	34.38
252.738	0	25	response	503	3	241.178181481481	220.964318518518	182.183774074074	60	3.42	18.42	34.38
252.738	0.5	25	feedback	503	3	241.178181481481	220.964318518518	182.183774074074	60	3.42	18.42	34.38
258.171	4.005	26	valuation	566	4	235.618392592593	221.82207037037	213.100407407407	190	8.55	6.65	3.8
262.176	0.915999999999997	26	rating	566	4	235.618392592593	221.82207037037	213.100407407407	190	8.55	6.65	3.8
263.092	0	26	response	566	4	235.618392592593	221.82207037037	213.100407407407	190	8.55	6.65	3.8
263.092	0.5	26	feedback	566	4	235.618392592593	221.82207037037	213.100407407407	190	8.55	6.65	3.8
270.452	4.005	27	valuation	490	2	238.84767037037	229.513007407407	193.213766666667	40	1	0.42	5.2
274.457	0.78000000000003	27	rating	490	2	238.84767037037	229.513007407407	193.213766666667	40	1	0.42	5.2
275.237	0	27	response	490	2	238.84767037037	229.513007407407	193.213766666667	40	1	0.42	5.2
275.237	0.5	27	feedback	490	2	238.84767037037	229.513007407407	193.213766666667	40	1	0.42	5.2
280.909	4.00400000000002	28	valuation	151	1	241.193903703704	224.897437037037	187.470951851852	150	7.95	34.5	78
284.913	1.43799999999999	28	rating	151	1	241.193903703704	224.897437037037	187.470951851852	150	7.95	34.5	78
286.351	0	28	response	151	1	241.193903703704	224.897437037037	187.470951851852	150	7.95	34.5	78
286.351	0.5	28	feedback	151	1	241.193903703704	224.897437037037	187.470951851852	150	7.95	34.5	78
294.102	4.00400000000002	29	valuation	296	4	227.07772962963	224.495862962963	211.274185185185	35	1.463	7.308	24.843
298.106	0.658000000000015	29	rating	296	4	227.07772962963	224.495862962963	211.274185185185	35	1.463	7.308	24.843
298.764	0	29	response	296	4	227.07772962963	224.495862962963	211.274185185185	35	1.463	7.308	24.843
298.764	0.5	29	feedback	296	4	227.07772962963	224.495862962963	211.274185185185	35	1.463	7.308	24.843
301.561	4.00700000000001	30	valuation	87	1	223.286288888889	209.11392962963	188.684481481482	236	28.32	28.32	33.04
305.568	1.22800000000001	30	rating	87	1	223.286288888889	209.11392962963	188.684481481482	236	28.32	28.32	33.04
306.796	0	30	response	87	1	223.286288888889	209.11392962963	188.684481481482	236	28.32	28.32	33.04
306.796	0.5	30	feedback	87	1	223.286288888889	209.11392962963	188.684481481482	236	28.32	28.32	33.04
313.242	4.00399999999996	31	valuation	26	2	240.671822222222	218.454088888889	165.623814814815	34	1.8632	11.9	16.32
317.246	2.20800000000003	31	rating	26	2	240.671822222222	218.454088888889	165.623814814815	34	1.8632	11.9	16.32
319.454	0	31	response	26	2	240.671822222222	218.454088888889	165.623814814815	34	1.8632	11.9	16.32
319.454	0.5	31	feedback	26	2	240.671822222222	218.454088888889	165.623814814815	34	1.8632	11.9	16.32
327.078	4.00800000000004	32	valuation	190	2	199.895948148148	186.299866666667	176.397803703704	280	39.2	61.6	30.8
331.086	1.06599999999997	32	rating	190	2	199.895948148148	186.299866666667	176.397803703704	280	39.2	61.6	30.8
332.152	0	32	response	190	2	199.895948148148	186.299866666667	176.397803703704	280	39.2	61.6	30.8
332.152	0.5	32	feedback	190	2	199.895948148148	186.299866666667	176.397803703704	280	39.2	61.6	30.8
338.078	4.00500000000005	33	valuation	92	2	242.662940740741	227.70252962963	196.131222222222	600	150	210	0
342.083	1.51999999999998	33	rating	92	2	242.662940740741	227.70252962963	196.131222222222	600	150	210	0
343.603	0	33	response	92	2	242.662940740741	227.70252962963	196.131222222222	600	150	210	0
343.603	0.5	33	feedback	92	2	242.662940740741	227.70252962963	196.131222222222	600	150	210	0
346.139	4.00599999999997	34	valuation	126	4	215.7277	192.312051851852	168.230407407407	590	37.76	133.281	234.702
350.145	0.805000000000007	34	rating	126	4	215.7277	192.312051851852	168.230407407407	590	37.76	133.281	234.702
350.95	0	34	response	126	4	215.7277	192.312051851852	168.230407407407	590	37.76	133.281	234.702
350.95	0.5	34	feedback	126	4	215.7277	192.312051851852	168.230407407407	590	37.76	133.281	234.702
355.181	4.00400000000002	35	valuation	30	2	231.086585185185	212.687988888889	188.667337037037	900	155.61	73.26	33.3
359.185	0.872000000000014	35	rating	30	2	231.086585185185	212.687988888889	188.667337037037	900	155.61	73.26	33.3
360.057	0	35	response	30	2	231.086585185185	212.687988888889	188.667337037037	900	155.61	73.26	33.3
360.057	0.5	35	feedback	30	2	231.086585185185	212.687988888889	188.667337037037	900	155.61	73.26	33.3
366.636	4.00399999999996	36	valuation	406	3	223.619848148148	217.093585185185	201.357018518519	325	30.615	18.135	21.97
370.64	0.705000000000041	36	rating	406	3	223.619848148148	217.093585185185	201.357018518519	325	30.615	18.135	21.97
371.345	0	36	response	406	3	223.619848148148	217.093585185185	201.357018518519	325	30.615	18.135	21.97
371.345	0.5	36	feedback	406	3	223.619848148148	217.093585185185	201.357018518519	325	30.615	18.135	21.97
376.387	4.00400000000002	37	valuation	16	3	231.443377777778	213.845492592593	198.130418518519	800	62.88	160	360
380.391	1.43299999999999	37	rating	16	3	231.443377777778	213.845492592593	198.130418518519	800	62.88	160	360
381.824	0	37	response	16	3	231.443377777778	213.845492592593	198.130418518519	800	62.88	160	360
381.824	0.5	37	feedback	16	3	231.443377777778	213.845492592593	198.130418518519	800	62.88	160	360
388.813	4.00800000000004	38	valuation	144	4	219.844614814815	200.664633333333	183.479592592593	800	45.6	40.8	104
392.821	0.750999999999976	38	rating	144	4	219.844614814815	200.664633333333	183.479592592593	800	45.6	40.8	104
393.572	0	38	response	144	4	219.844614814815	200.664633333333	183.479592592593	800	45.6	40.8	104
393.572	0.5	38	feedback	144	4	219.844614814815	200.664633333333	183.479592592593	800	45.6	40.8	104
401.466	4.00400000000002	39	valuation	281	4	240.906259259259	242.674366666667	221.759122222222	100	1	0.3	15.6
405.47	1.464	39	rating	281	4	240.906259259259	242.674366666667	221.759122222222	100	1	0.3	15.6
406.934	0	39	response	281	4	240.906259259259	242.674366666667	221.759122222222	100	1	0.3	15.6
406.934	0.5	39	feedback	281	4	240.906259259259	242.674366666667	221.759122222222	100	1	0.3	15.6
413.664	4.00400000000002	40	valuation	162	2	175.828844444444	170.449585185185	170.038607407407	140	7	32.2	72.8
417.668	1.12599999999998	40	rating	162	2	175.828844444444	170.449585185185	170.038607407407	140	7	32.2	72.8
418.794	0	40	response	162	2	175.828844444444	170.449585185185	170.038607407407	140	7	32.2	72.8
418.794	0.5	40	feedback	162	2	175.828844444444	170.449585185185	170.038607407407	140	7	32.2	72.8
423.686	4.00400000000002	41	valuation	42	3	233.080374074074	221.833485185185	221.096044444444	800	55.04	146.48	327.68
427.69	0.704000000000008	41	rating	42	3	233.080374074074	221.833485185185	221.096044444444	800	55.04	146.48	327.68
428.394	0	41	response	42	3	233.080374074074	221.833485185185	221.096044444444	800	55.04	146.48	327.68
428.394	0.5	41	feedback	42	3	233.080374074074	221.833485185185	221.096044444444	800	55.04	146.48	327.68
436.559	4.00599999999997	42	valuation	105	1	231.943188888889	211.231074074074	190.760774074074	50	2.55	5.8	34.1
440.565	1.11900000000003	42	rating	105	1	231.943188888889	211.231074074074	190.760774074074	50	2.55	5.8	34.1
441.684	0	42	response	105	1	231.943188888889	211.231074074074	190.760774074074	50	2.55	5.8	34.1
441.684	0.5	42	feedback	105	1	231.943188888889	211.231074074074	190.760774074074	50	2.55	5.8	34.1
449.957	4.00999999999999	43	valuation	416	4	227.359877777778	204.405	182.503674074074	60	11.4	30	9.6
453.967	0.708000000000027	43	rating	416	4	227.359877777778	204.405	182.503674074074	60	11.4	30	9.6
454.675	0	43	response	416	4	227.359877777778	204.405	182.503674074074	60	11.4	30	9.6
454.675	0.5	43	feedback	416	4	227.359877777778	204.405	182.503674074074	60	11.4	30	9.6
461.927	4.00399999999996	44	valuation	294	3	238.324011111111	234.670525925926	224.783814814815	5	0.385	0.9	2.75
465.931	1.72399999999999	44	rating	294	3	238.324011111111	234.670525925926	224.783814814815	5	0.385	0.9	2.75
467.655	0	44	response	294	3	238.324011111111	234.670525925926	224.783814814815	5	0.385	0.9	2.75
467.655	0.5	44	feedback	294	3	238.324011111111	234.670525925926	224.783814814815	5	0.385	0.9	2.75
470.711	4.00399999999996	45	valuation	334	1	233.865959259259	228.59447037037	210.783918518519	400	5.2	0.8	20.8
474.715	1.10600000000005	45	rating	334	1	233.865959259259	228.59447037037	210.783918518519	400	5.2	0.8	20.8
475.821	0	45	response	334	1	233.865959259259	228.59447037037	210.783918518519	400	5.2	0.8	20.8
475.821	0.5	45	feedback	334	1	233.865959259259	228.59447037037	210.783918518519	400	5.2	0.8	20.8
482.66	4.00399999999996	46	valuation	553	1	233.132855555556	207.314462962963	194.290892592593	700	105	63	14
486.664	0.63900000000001	46	rating	553	1	233.132855555556	207.314462962963	194.290892592593	700	105	63	14
487.303	0	46	response	553	1	233.132855555556	207.314462962963	194.290892592593	700	105	63	14
487.303	0.5	46	feedback	553	1	233.132855555556	207.314462962963	194.290892592593	700	105	63	14
495.863	4.00799999999998	47	valuation	328	2	219.765292592593	196.512414814815	184.031585185185	315	59.6925	18.018	4.473
499.871	1.053	47	rating	328	2	219.765292592593	196.512414814815	184.031585185185	315	59.6925	18.018	4.473
500.924	0	47	response	328	2	219.765292592593	196.512414814815	184.031585185185	315	59.6925	18.018	4.473
500.924	0.5	47	feedback	328	2	219.765292592593	196.512414814815	184.031585185185	315	59.6925	18.018	4.473
