onset	duration	trial_id	trial_type	image_id	rating_value	red	green	blue	gram	protein	fat	carb
10.021	4.006	1	valuation	421	1	235.056318518519	197.617114814815	196.365037037037	120	3.72	12.72	33.84
14.027	0.487	1	rating	421	1	235.056318518519	197.617114814815	196.365037037037	120	3.72	12.72	33.84
14.514	0	1	response	421	1	235.056318518519	197.617114814815	196.365037037037	120	3.72	12.72	33.84
14.514	0.5	1	feedback	421	1	235.056318518519	197.617114814815	196.365037037037	120	3.72	12.72	33.84
18.092	4.004	2	valuation	551	3	232.550692592593	223.630081481482	191.2882	200	13	13.8	59
22.096	0.579000000000001	2	rating	551	3	232.550692592593	223.630081481482	191.2882	200	13	13.8	59
22.675	0	2	response	551	3	232.550692592593	223.630081481482	191.2882	200	13	13.8	59
22.675	0.5	2	feedback	551	3	232.550692592593	223.630081481482	191.2882	200	13	13.8	59
25.976	4.005	3	valuation	402	3	242.732937037037	224.408088888889	208.565862962963	150	0.75	0.45	18.6
29.981	0.598999999999997	3	rating	402	3	242.732937037037	224.408088888889	208.565862962963	150	0.75	0.45	18.6
30.58	0	3	response	402	3	242.732937037037	224.408088888889	208.565862962963	150	0.75	0.45	18.6
30.58	0.5	3	feedback	402	3	242.732937037037	224.408088888889	208.565862962963	150	0.75	0.45	18.6
36.131	4.004	4	valuation	303	2	228.245851851852	221.621888888889	196.561248148148	50	1.23	0.14	1.17
40.135	0.666000000000004	4	rating	303	2	228.245851851852	221.621888888889	196.561248148148	50	1.23	0.14	1.17
40.801	0	4	response	303	2	228.245851851852	221.621888888889	196.561248148148	50	1.23	0.14	1.17
40.801	0.5	4	feedback	303	2	228.245851851852	221.621888888889	196.561248148148	50	1.23	0.14	1.17
46.013	4.005	5	valuation	517	2	246.386655555556	237.275566666667	210.835722222222	150	40.5	48	0
50.018	0.710999999999999	5	rating	517	2	246.386655555556	237.275566666667	210.835722222222	150	40.5	48	0
50.729	0	5	response	517	2	246.386655555556	237.275566666667	210.835722222222	150	40.5	48	0
50.729	0.5	5	feedback	517	2	246.386655555556	237.275566666667	210.835722222222	150	40.5	48	0
57.347	4.004	6	valuation	509	1	233.156288888889	230.746048148148	210.392462962963	20	0.54	0.06	1.2
61.351	0.526000000000003	6	rating	509	1	233.156288888889	230.746048148148	210.392462962963	20	0.54	0.06	1.2
61.877	0	6	response	509	1	233.156288888889	230.746048148148	210.392462962963	20	0.54	0.06	1.2
61.877	0.5	6	feedback	509	1	233.156288888889	230.746048148148	210.392462962963	20	0.54	0.06	1.2
66.325	4.005	7	valuation	309	2	239.528037037037	219.687762962963	199.263762962963	300	54	22.83	51.9
70.33	0.674999999999997	7	rating	309	2	239.528037037037	219.687762962963	199.263762962963	300	54	22.83	51.9
71.005	0	7	response	309	2	239.528037037037	219.687762962963	199.263762962963	300	54	22.83	51.9
71.005	0.5	7	feedback	309	2	239.528037037037	219.687762962963	199.263762962963	300	54	22.83	51.9
74.708	4.004	8	valuation	201	2	194.658677777778	195.348214814815	171.040111111111	50	1.3	0.15	1.95
78.712	0.798000000000002	8	rating	201	2	194.658677777778	195.348214814815	171.040111111111	50	1.3	0.15	1.95
79.51	0	8	response	201	2	194.658677777778	195.348214814815	171.040111111111	50	1.3	0.15	1.95
79.51	0.5	8	feedback	201	2	194.658677777778	195.348214814815	171.040111111111	50	1.3	0.15	1.95
85.747	4.008	9	valuation	546	2	238.084477777778	194.214203703704	165.920355555556	500	139.5	67	0
89.755	0.707000000000008	9	rating	546	2	238.084477777778	194.214203703704	165.920355555556	500	139.5	67	0
90.462	0	9	response	546	2	238.084477777778	194.214203703704	165.920355555556	500	139.5	67	0
90.462	0.5	9	feedback	546	2	238.084477777778	194.214203703704	165.920355555556	500	139.5	67	0
98.767	4.00500000000001	10	valuation	237	1	244.841388888889	243.758411111111	238.652048148148	350	31.15	35	13.3
102.772	0.61099999999999	10	rating	237	1	244.841388888889	243.758411111111	238.652048148148	350	31.15	35	13.3
103.383	0	10	response	237	1	244.841388888889	243.758411111111	238.652048148148	350	31.15	35	13.3
103.383	0.5	10	feedback	237	1	244.841388888889	243.758411111111	238.652048148148	350	31.15	35	13.3
107.958	4.005	11	valuation	306	1	234.096081481481	192.577996296296	157.746648148148	230	4.6	15.433	27.83
111.963	0.965000000000003	11	rating	306	1	234.096081481481	192.577996296296	157.746648148148	230	4.6	15.433	27.83
112.928	0	11	response	306	1	234.096081481481	192.577996296296	157.746648148148	230	4.6	15.433	27.83
112.928	0.5	11	feedback	306	1	234.096081481481	192.577996296296	157.746648148148	230	4.6	15.433	27.83
118.297	4.004	12	valuation	290	2	240.033566666667	230.904607407407	213.06617037037	300	15	90.42	187.5
122.301	1.10299999999999	12	rating	290	2	240.033566666667	230.904607407407	213.06617037037	300	15	90.42	187.5
123.404	0	12	response	290	2	240.033566666667	230.904607407407	213.06617037037	300	15	90.42	187.5
123.404	0.5	12	feedback	290	2	240.033566666667	230.904607407407	213.06617037037	300	15	90.42	187.5
131.193	4.00799999999998	13	valuation	337	3	230.767918518518	215.990459259259	204.099437037037	300	32.34	9.51	9.93
135.201	0.781000000000006	13	rating	337	3	230.767918518518	215.990459259259	204.099437037037	300	32.34	9.51	9.93
135.982	0	13	response	337	3	230.767918518518	215.990459259259	204.099437037037	300	32.34	9.51	9.93
135.982	0.5	13	feedback	337	3	230.767918518518	215.990459259259	204.099437037037	300	32.34	9.51	9.93
140.304	4.00399999999999	14	valuation	540	4	223.916451851852	169.149040740741	168.88347037037	300	60	9	3
144.308	0.599000000000018	14	rating	540	4	223.916451851852	169.149040740741	168.88347037037	300	60	9	3
144.907	0	14	response	540	4	223.916451851852	169.149040740741	168.88347037037	300	60	9	3
144.907	0.5	14	feedback	540	4	223.916451851852	169.149040740741	168.88347037037	300	60	9	3
147.437	4.005	15	valuation	25	2	226.291174074074	216.194922222222	212.551062962963	100	2.58	2.68	30.66
151.442	0.784999999999997	15	rating	25	2	226.291174074074	216.194922222222	212.551062962963	100	2.58	2.68	30.66
152.227	0	15	response	25	2	226.291174074074	216.194922222222	212.551062962963	100	2.58	2.68	30.66
152.227	0.5	15	feedback	25	2	226.291174074074	216.194922222222	212.551062962963	100	2.58	2.68	30.66
158.101	4.00300000000001	16	valuation	60	3	233.02332962963	218.918403703704	196.226703703704	220	8.25	37.488	75.009
162.104	0.61699999999999	16	rating	60	3	233.02332962963	218.918403703704	196.226703703704	220	8.25	37.488	75.009
162.721	0	16	response	60	3	233.02332962963	218.918403703704	196.226703703704	220	8.25	37.488	75.009
162.721	0.5	16	feedback	60	3	233.02332962963	218.918403703704	196.226703703704	220	8.25	37.488	75.009
170.616	4.00399999999999	17	valuation	100	1	212.79622962963	209.737725925926	209.198748148148	1200	55.2	228	343.2
174.62	0.520999999999987	17	rating	100	1	212.79622962963	209.737725925926	209.198748148148	1200	55.2	228	343.2
175.141	0	17	response	100	1	212.79622962963	209.737725925926	209.198748148148	1200	55.2	228	343.2
175.141	0.5	17	feedback	100	1	212.79622962963	209.737725925926	209.198748148148	1200	55.2	228	343.2
179.362	4.005	18	valuation	531	1	237.7677	180.011448148148	185.80487037037	95	1.235	0.285	4.56
183.367	0.37700000000001	18	rating	531	1	237.7677	180.011448148148	185.80487037037	95	1.235	0.285	4.56
183.744	0	18	response	531	1	237.7677	180.011448148148	185.80487037037	95	1.235	0.285	4.56
183.744	0.5	18	feedback	531	1	237.7677	180.011448148148	185.80487037037	95	1.235	0.285	4.56
187.192	4.00399999999999	19	valuation	233	3	229.463418518519	202.517385185185	195.26052962963	650	5.85	1.3	16.055
191.196	0.579000000000008	19	rating	233	3	229.463418518519	202.517385185185	195.26052962963	650	5.85	1.3	16.055
191.775	0	19	response	233	3	229.463418518519	202.517385185185	195.26052962963	650	5.85	1.3	16.055
191.775	0.5	19	feedback	233	3	229.463418518519	202.517385185185	195.26052962963	650	5.85	1.3	16.055
195.584	4.00399999999999	20	valuation	340	2	229.827418518519	217.80897037037	208.975240740741	5	0.19	0	4
199.588	0.787000000000006	20	rating	340	2	229.827418518519	217.80897037037	208.975240740741	5	0.19	0	4
200.375	0	20	response	340	2	229.827418518519	217.80897037037	208.975240740741	5	0.19	0	4
200.375	0.5	20	feedback	340	2	229.827418518519	217.80897037037	208.975240740741	5	0.19	0	4
207.249	4.00800000000001	21	valuation	104	2	244.397725925926	231.58552962963	203.947466666667	25	1.475	5.5	15.5
211.257	0.893000000000001	21	rating	104	2	244.397725925926	231.58552962963	203.947466666667	25	1.475	5.5	15.5
212.15	0	21	response	104	2	244.397725925926	231.58552962963	203.947466666667	25	1.475	5.5	15.5
212.15	0.5	21	feedback	104	2	244.397725925926	231.58552962963	203.947466666667	25	1.475	5.5	15.5
217.237	4.005	22	valuation	313	3	243.020677777778	232.450648148148	229.041277777778	92	2.5024	8.9976	35.9996
221.242	1.11100000000002	22	rating	313	3	243.020677777778	232.450648148148	229.041277777778	92	2.5024	8.9976	35.9996
222.353	0	22	response	313	3	243.020677777778	232.450648148148	229.041277777778	92	2.5024	8.9976	35.9996
222.353	0.5	22	feedback	313	3	243.020677777778	232.450648148148	229.041277777778	92	2.5024	8.9976	35.9996
229.384	4.00500000000002	23	valuation	4	2	241.6334	235.246888888889	224.08042962963	19	1.178	4.94	11.97
233.389	0.627999999999986	23	rating	4	2	241.6334	235.246888888889	224.08042962963	19	1.178	4.94	11.97
234.017	0	23	response	4	2	241.6334	235.246888888889	224.08042962963	19	1.178	4.94	11.97
234.017	0.5	23	feedback	4	2	241.6334	235.246888888889	224.08042962963	19	1.178	4.94	11.97
239.743	4.00400000000002	24	valuation	297	2	240.370292592593	234.992296296296	226.224144444444	14	1.4196	3.6904	8.519
243.747	0.597999999999985	24	rating	297	2	240.370292592593	234.992296296296	226.224144444444	14	1.4196	3.6904	8.519
244.345	0	24	response	297	2	240.370292592593	234.992296296296	226.224144444444	14	1.4196	3.6904	8.519
244.345	0.5	24	feedback	297	2	240.370292592593	234.992296296296	226.224144444444	14	1.4196	3.6904	8.519
251.984	4.00399999999999	25	valuation	304	2	243.904940740741	229.072385185185	192.886733333333	400	8	22.8	44.8
255.988	0.807999999999993	25	rating	304	2	243.904940740741	229.072385185185	192.886733333333	400	8	22.8	44.8
256.796	0	25	response	304	2	243.904940740741	229.072385185185	192.886733333333	400	8	22.8	44.8
256.796	0.5	25	feedback	304	2	243.904940740741	229.072385185185	192.886733333333	400	8	22.8	44.8
264.84	4.00900000000001	26	valuation	56	3	230.325433333333	221.73747037037	215.9782	150	6	16.005	40.005
268.849	0.677000000000021	26	rating	56	3	230.325433333333	221.73747037037	215.9782	150	6	16.005	40.005
269.526	0	26	response	56	3	230.325433333333	221.73747037037	215.9782	150	6	16.005	40.005
269.526	0.5	26	feedback	56	3	230.325433333333	221.73747037037	215.9782	150	6	16.005	40.005
276.039	4.005	27	valuation	323	4	228.088137037037	220.723218518519	203.94212962963	377	54.0995	22.0168	19.4909
280.044	0.746000000000038	27	rating	323	4	228.088137037037	220.723218518519	203.94212962963	377	54.0995	22.0168	19.4909
280.79	0	27	response	323	4	228.088137037037	220.723218518519	203.94212962963	377	54.0995	22.0168	19.4909
280.79	0.5	27	feedback	323	4	228.088137037037	220.723218518519	203.94212962963	377	54.0995	22.0168	19.4909
287.931	4.00400000000002	28	valuation	541	1	233.812844444444	223.655855555556	214.637522222222	520	109.2	10.4	0
291.935	0.702999999999975	28	rating	541	1	233.812844444444	223.655855555556	214.637522222222	520	109.2	10.4	0
292.638	0	28	response	541	1	233.812844444444	223.655855555556	214.637522222222	520	109.2	10.4	0
292.638	0.5	28	feedback	541	1	233.812844444444	223.655855555556	214.637522222222	520	109.2	10.4	0
300.787	4.00800000000004	29	valuation	518	1	243.764974074074	235.473407407407	230.149396296296	250	1.25	0	10
304.795	1.04499999999996	29	rating	518	1	243.764974074074	235.473407407407	230.149396296296	250	1.25	0	10
305.84	0	29	response	518	1	243.764974074074	235.473407407407	230.149396296296	250	1.25	0	10
305.84	0.5	29	feedback	518	1	243.764974074074	235.473407407407	230.149396296296	250	1.25	0	10
308.779	4.005	30	valuation	341	2	243.643766666667	235.343803703704	207.559322222222	396	4.554	0.7128	84.7044
312.784	0.72399999999999	30	rating	341	2	243.643766666667	235.343803703704	207.559322222222	396	4.554	0.7128	84.7044
313.508	0	30	response	341	2	243.643766666667	235.343803703704	207.559322222222	396	4.554	0.7128	84.7044
313.508	0.5	30	feedback	341	2	243.643766666667	235.343803703704	207.559322222222	396	4.554	0.7128	84.7044
320.893	4.00800000000004	31	valuation	389	2	236.718166666667	231.179922222222	208.921581481481	1200	10.8	3.6	100.8
324.901	0.706000000000017	31	rating	389	2	236.718166666667	231.179922222222	208.921581481481	1200	10.8	3.6	100.8
325.607	0	31	response	389	2	236.718166666667	231.179922222222	208.921581481481	1200	10.8	3.6	100.8
325.607	0.5	31	feedback	389	2	236.718166666667	231.179922222222	208.921581481481	1200	10.8	3.6	100.8
330.466	4.00400000000002	32	valuation	391	3	208.474548148148	200.291181481481	200.220840740741	300	2.1	0.9	46.8
334.47	0.649999999999977	32	rating	391	3	208.474548148148	200.291181481481	200.220840740741	300	2.1	0.9	46.8
335.12	0	32	response	391	3	208.474548148148	200.291181481481	200.220840740741	300	2.1	0.9	46.8
335.12	0.5	32	feedback	391	3	208.474548148148	200.291181481481	200.220840740741	300	2.1	0.9	46.8
340.106	4.00400000000002	33	valuation	236	4	224.288003703704	218.802785185185	216.243685185185	50	3.5	0.1	39
344.11	0.486999999999966	33	rating	236	4	224.288003703704	218.802785185185	216.243685185185	50	3.5	0.1	39
344.597	0	33	response	236	4	224.288003703704	218.802785185185	216.243685185185	50	3.5	0.1	39
344.597	0.5	33	feedback	236	4	224.288003703704	218.802785185185	216.243685185185	50	3.5	0.1	39
347.663	4.005	34	valuation	171	1	225.838885185185	222.008844444444	220.679944444444	19.5	0.585	1.95	13.455
351.668	0.576999999999998	34	rating	171	1	225.838885185185	222.008844444444	220.679944444444	19.5	0.585	1.95	13.455
352.245	0	34	response	171	1	225.838885185185	222.008844444444	220.679944444444	19.5	0.585	1.95	13.455
352.245	0.5	34	feedback	171	1	225.838885185185	222.008844444444	220.679944444444	19.5	0.585	1.95	13.455
358.353	4.005	35	valuation	249	2	227.740374074074	228.878825925926	212.286907407407	1900	28.88	3.23	27.55
362.358	1.37200000000001	35	rating	249	2	227.740374074074	228.878825925926	212.286907407407	1900	28.88	3.23	27.55
363.73	0	35	response	249	2	227.740374074074	228.878825925926	212.286907407407	1900	28.88	3.23	27.55
363.73	0.5	35	feedback	249	2	227.740374074074	228.878825925926	212.286907407407	1900	28.88	3.23	27.55
367.816	4.00400000000002	36	valuation	169	2	192.852992592593	177.805596296296	172.424551851852	55	3.795	14.85	20.02
371.82	1.04399999999998	36	rating	169	2	192.852992592593	177.805596296296	172.424551851852	55	3.795	14.85	20.02
372.864	0	36	response	169	2	192.852992592593	177.805596296296	172.424551851852	55	3.795	14.85	20.02
372.864	0.5	36	feedback	169	2	192.852992592593	177.805596296296	172.424551851852	55	3.795	14.85	20.02
375.653	4.00399999999996	37	valuation	497	1	235.62327037037	212.055107407407	196.81682962963	60	12.48	13.08	0.54
379.657	0.638000000000034	37	rating	497	1	235.62327037037	212.055107407407	196.81682962963	60	12.48	13.08	0.54
380.295	0	37	response	497	1	235.62327037037	212.055107407407	196.81682962963	60	12.48	13.08	0.54
380.295	0.5	37	feedback	497	1	235.62327037037	212.055107407407	196.81682962963	60	12.48	13.08	0.54
385.911	4.005	38	valuation	553	1	233.132855555556	207.314462962963	194.290892592593	700	105	63	14
389.916	0.73399999999998	38	rating	553	1	233.132855555556	207.314462962963	194.290892592593	700	105	63	14
390.65	0	38	response	553	1	233.132855555556	207.314462962963	194.290892592593	700	105	63	14
390.65	0.5	38	feedback	553	1	233.132855555556	207.314462962963	194.290892592593	700	105	63	14
393.823	4.005	39	valuation	377	2	239.679737037037	207.307562962963	170.026059259259	60	4.8	11.82	27.54
397.828	0.995000000000005	39	rating	377	2	239.679737037037	207.307562962963	170.026059259259	60	4.8	11.82	27.54
398.823	0	39	response	377	2	239.679737037037	207.307562962963	170.026059259259	60	4.8	11.82	27.54
398.823	0.5	39	feedback	377	2	239.679737037037	207.307562962963	170.026059259259	60	4.8	11.82	27.54
406.102	4.00400000000002	40	valuation	257	2	214.500348148148	200.739385185185	199.419940740741	300	2.4	0.6	3.9
410.106	0.922000000000025	40	rating	257	2	214.500348148148	200.739385185185	199.419940740741	300	2.4	0.6	3.9
411.028	0	40	response	257	2	214.500348148148	200.739385185185	199.419940740741	300	2.4	0.6	3.9
411.028	0.5	40	feedback	257	2	214.500348148148	200.739385185185	199.419940740741	300	2.4	0.6	3.9
414.964	4.00400000000002	41	valuation	272	1	226.874996296296	232.635744444444	227.7664	30	1.074	0.18	0.48
418.968	1.16199999999998	41	rating	272	1	226.874996296296	232.635744444444	227.7664	30	1.074	0.18	0.48
420.13	0	41	response	272	1	226.874996296296	232.635744444444	227.7664	30	1.074	0.18	0.48
420.13	0.5	41	feedback	272	1	226.874996296296	232.635744444444	227.7664	30	1.074	0.18	0.48
428.664	4.00800000000004	42	valuation	44	2	241.97977037037	236.37617037037	228.174722222222	6	0.4668	1.5384	3.4086
432.672	1.07999999999998	42	rating	44	2	241.97977037037	236.37617037037	228.174722222222	6	0.4668	1.5384	3.4086
433.752	0	42	response	44	2	241.97977037037	236.37617037037	228.174722222222	6	0.4668	1.5384	3.4086
433.752	0.5	42	feedback	44	2	241.97977037037	236.37617037037	228.174722222222	6	0.4668	1.5384	3.4086
442.159	4.00400000000002	43	valuation	165	1	225.317955555556	214.999707407407	210.162355555556	40	2.24	11	22.92
446.163	0.510999999999967	43	rating	165	1	225.317955555556	214.999707407407	210.162355555556	40	2.24	11	22.92
446.674	0	43	response	165	1	225.317955555556	214.999707407407	210.162355555556	40	2.24	11	22.92
446.674	0.5	43	feedback	165	1	225.317955555556	214.999707407407	210.162355555556	40	2.24	11	22.92
452.682	4.00399999999996	44	valuation	406	3	223.619848148148	217.093585185185	201.357018518519	325	30.615	18.135	21.97
456.686	0.723000000000013	44	rating	406	3	223.619848148148	217.093585185185	201.357018518519	325	30.615	18.135	21.97
457.409	0	44	response	406	3	223.619848148148	217.093585185185	201.357018518519	325	30.615	18.135	21.97
457.409	0.5	44	feedback	406	3	223.619848148148	217.093585185185	201.357018518519	325	30.615	18.135	21.97
464.922	4.00799999999998	45	valuation	97	1	195.692644444444	183.59317037037	168.92712962963	150	8.85	25.2	41.1
468.93	0.694999999999993	45	rating	97	1	195.692644444444	183.59317037037	168.92712962963	150	8.85	25.2	41.1
469.625	0	45	response	97	1	195.692644444444	183.59317037037	168.92712962963	150	8.85	25.2	41.1
469.625	0.5	45	feedback	97	1	195.692644444444	183.59317037037	168.92712962963	150	8.85	25.2	41.1
475.989	4.00400000000002	46	valuation	248	3	224.806459259259	224.496444444444	225.375659259259	60	0.36	0.36	4.38
479.993	0.703000000000031	46	rating	248	3	224.806459259259	224.496444444444	225.375659259259	60	0.36	0.36	4.38
480.696	0	46	response	248	3	224.806459259259	224.496444444444	225.375659259259	60	0.36	0.36	4.38
480.696	0.5	46	feedback	248	3	224.806459259259	224.496444444444	225.375659259259	60	0.36	0.36	4.38
487.461	4.00399999999996	47	valuation	314	4	233.865662962963	212.069914814815	199.556859259259	320	20.48	5.184	33.824
491.465	0.731000000000051	47	rating	314	4	233.865662962963	212.069914814815	199.556859259259	320	20.48	5.184	33.824
492.196	0	47	response	314	4	233.865662962963	212.069914814815	199.556859259259	320	20.48	5.184	33.824
492.196	0.5	47	feedback	314	4	233.865662962963	212.069914814815	199.556859259259	320	20.48	5.184	33.824
496.899	4.005	48	valuation	190	1	199.895948148148	186.299866666667	176.397803703704	280	39.2	61.6	30.8
500.904	0.622000000000014	48	rating	190	1	199.895948148148	186.299866666667	176.397803703704	280	39.2	61.6	30.8
501.526	0	48	response	190	1	199.895948148148	186.299866666667	176.397803703704	280	39.2	61.6	30.8
501.526	0.5	48	feedback	190	1	199.895948148148	186.299866666667	176.397803703704	280	39.2	61.6	30.8
