onset	duration	trial_id	trial_type	image_id	rating_value	red	green	blue	gram	protein	fat	carb
10.048	4.006	1	valuation	540	3	223.916451851852	169.149040740741	168.88347037037	300	60	9	3
14.054	0.914999999999999	1	rating	540	3	223.916451851852	169.149040740741	168.88347037037	300	60	9	3
14.969	0	1	response	540	3	223.916451851852	169.149040740741	168.88347037037	300	60	9	3
14.969	0.5	1	feedback	540	3	223.916451851852	169.149040740741	168.88347037037	300	60	9	3
23.013	4.004	2	valuation	279	3	241.263014814815	240.356188888889	238.881318518519	65	3.38	1.105	18.785
27.017	0.504000000000001	2	rating	279	3	241.263014814815	240.356188888889	238.881318518519	65	3.38	1.105	18.785
27.521	0	2	response	279	3	241.263014814815	240.356188888889	238.881318518519	65	3.38	1.105	18.785
27.521	0.5	2	feedback	279	3	241.263014814815	240.356188888889	238.881318518519	65	3.38	1.105	18.785
32.142	4.005	3	valuation	232	2	177.578688888889	181.550966666667	164.864677777778	100	2.6	0.4	4
36.147	0.703000000000003	3	rating	232	2	177.578688888889	181.550966666667	164.864677777778	100	2.6	0.4	4
36.85	0	3	response	232	2	177.578688888889	181.550966666667	164.864677777778	100	2.6	0.4	4
36.85	0.5	3	feedback	232	2	177.578688888889	181.550966666667	164.864677777778	100	2.6	0.4	4
39.697	4.004	4	valuation	520	1	241.509025925926	241.656559259259	206.112614814815	25	0.25	0.075	1.975
43.701	0.701000000000001	4	rating	520	1	241.509025925926	241.656559259259	206.112614814815	25	0.25	0.075	1.975
44.402	0	4	response	520	1	241.509025925926	241.656559259259	206.112614814815	25	0.25	0.075	1.975
44.402	0.5	4	feedback	520	1	241.509025925926	241.656559259259	206.112614814815	25	0.25	0.075	1.975
49.544	4.005	5	valuation	410	3	234.31097037037	214.737685185185	193.043496296296	300	75.9	144.3	24.9
53.549	0.539999999999999	5	rating	410	3	234.31097037037	214.737685185185	193.043496296296	300	75.9	144.3	24.9
54.089	0	5	response	410	3	234.31097037037	214.737685185185	193.043496296296	300	75.9	144.3	24.9
54.089	0.5	5	feedback	410	3	234.31097037037	214.737685185185	193.043496296296	300	75.9	144.3	24.9
58.972	4.004	6	valuation	302	3	247.920840740741	207.924792592593	173.305907407407	180	25.2	15.804	25.38
62.976	0.875	6	rating	302	3	247.920840740741	207.924792592593	173.305907407407	180	25.2	15.804	25.38
63.851	0	6	response	302	3	247.920840740741	207.924792592593	173.305907407407	180	25.2	15.804	25.38
63.851	0.5	6	feedback	302	3	247.920840740741	207.924792592593	173.305907407407	180	25.2	15.804	25.38
72.014	4.01100000000001	7	valuation	100	4	212.79622962963	209.737725925926	209.198748148148	1200	55.2	228	343.2
76.025	0.837999999999994	7	rating	100	4	212.79622962963	209.737725925926	209.198748148148	1200	55.2	228	343.2
76.863	0	7	response	100	4	212.79622962963	209.737725925926	209.198748148148	1200	55.2	228	343.2
76.863	0.5	7	feedback	100	4	212.79622962963	209.737725925926	209.198748148148	1200	55.2	228	343.2
82.397	4.005	8	valuation	469	3	243.717551851852	232.71842962963	214.081474074074	50	3.68	1.67	23.845
86.402	0.548000000000002	8	rating	469	3	243.717551851852	232.71842962963	214.081474074074	50	3.68	1.67	23.845
86.95	0	8	response	469	3	243.717551851852	232.71842962963	214.081474074074	50	3.68	1.67	23.845
86.95	0.5	8	feedback	469	3	243.717551851852	232.71842962963	214.081474074074	50	3.68	1.67	23.845
91.96	4.004	9	valuation	490	3	238.84767037037	229.513007407407	193.213766666667	40	1	0.42	5.2
95.964	0.953000000000003	9	rating	490	3	238.84767037037	229.513007407407	193.213766666667	40	1	0.42	5.2
96.917	0	9	response	490	3	238.84767037037	229.513007407407	193.213766666667	40	1	0.42	5.2
96.917	0.5	9	feedback	490	3	238.84767037037	229.513007407407	193.213766666667	40	1	0.42	5.2
100.363	4.005	10	valuation	157	4	198.883511111111	170.1025	123.753666666667	100	6.3	0.1	77.4
104.368	0.709000000000003	10	rating	157	4	198.883511111111	170.1025	123.753666666667	100	6.3	0.1	77.4
105.077	0	10	response	157	4	198.883511111111	170.1025	123.753666666667	100	6.3	0.1	77.4
105.077	0.5	10	feedback	157	4	198.883511111111	170.1025	123.753666666667	100	6.3	0.1	77.4
109.567	4.004	11	valuation	234	4	220.932896296296	199.742540740741	191.633251851852	30	0.234	0.117	1.599
113.571	0.528000000000006	11	rating	234	4	220.932896296296	199.742540740741	191.633251851852	30	0.234	0.117	1.599
114.099	0	11	response	234	4	220.932896296296	199.742540740741	191.633251851852	30	0.234	0.117	1.599
114.099	0.5	11	feedback	234	4	220.932896296296	199.742540740741	191.633251851852	30	0.234	0.117	1.599
120.153	4.008	12	valuation	499	4	223.644125925926	218.803355555555	212.567340740741	18	1.26	6.84	8.46
124.161	0.640000000000001	12	rating	499	4	223.644125925926	218.803355555555	212.567340740741	18	1.26	6.84	8.46
124.801	0	12	response	499	4	223.644125925926	218.803355555555	212.567340740741	18	1.26	6.84	8.46
124.801	0.5	12	feedback	499	4	223.644125925926	218.803355555555	212.567340740741	18	1.26	6.84	8.46
131.643	4.00700000000001	13	valuation	518	3	243.764974074074	235.473407407407	230.149396296296	250	1.25	0	10
135.65	1.26999999999998	13	rating	518	3	243.764974074074	235.473407407407	230.149396296296	250	1.25	0	10
136.92	0	13	response	518	3	243.764974074074	235.473407407407	230.149396296296	250	1.25	0	10
136.92	0.5	13	feedback	518	3	243.764974074074	235.473407407407	230.149396296296	250	1.25	0	10
144.541	4.005	14	valuation	149	3	225.942218518519	180.648325925926	148.457092592593	70	10.5	23.1	28
148.546	1.03800000000001	14	rating	149	3	225.942218518519	180.648325925926	148.457092592593	70	10.5	23.1	28
149.584	0	14	response	149	3	225.942218518519	180.648325925926	148.457092592593	70	10.5	23.1	28
149.584	0.5	14	feedback	149	3	225.942218518519	180.648325925926	148.457092592593	70	10.5	23.1	28
153.447	4.00399999999999	15	valuation	431	1	230.700055555556	229.526433333333	218.11687037037	550	7.15	1.1	28.6
157.451	0.774000000000001	15	rating	431	1	230.700055555556	229.526433333333	218.11687037037	550	7.15	1.1	28.6
158.225	0	15	response	431	1	230.700055555556	229.526433333333	218.11687037037	550	7.15	1.1	28.6
158.225	0.5	15	feedback	431	1	230.700055555556	229.526433333333	218.11687037037	550	7.15	1.1	28.6
164.411	4.00399999999999	16	valuation	525	2	230.031614814815	199.476592592593	164.767181481481	7.5	1.08	4.6875	0.795
168.415	1.65700000000001	16	rating	525	2	230.031614814815	199.476592592593	164.767181481481	7.5	1.08	4.6875	0.795
170.072	0	16	response	525	2	230.031614814815	199.476592592593	164.767181481481	7.5	1.08	4.6875	0.795
170.072	0.5	16	feedback	525	2	230.031614814815	199.476592592593	164.767181481481	7.5	1.08	4.6875	0.795
173.671	4.00400000000002	17	valuation	319	4	233.153577777778	211.589825925926	200.948622222222	2000	364	344	0
177.675	0.561999999999983	17	rating	319	4	233.153577777778	211.589825925926	200.948622222222	2000	364	344	0
178.237	0	17	response	319	4	233.153577777778	211.589825925926	200.948622222222	2000	364	344	0
178.237	0.5	17	feedback	319	4	233.153577777778	211.589825925926	200.948622222222	2000	364	344	0
185.205	4.005	18	valuation	500	4	224.335777777778	210.903914814815	203.253496296296	15	1.035	5.175	7.68
189.21	0.693999999999988	18	rating	500	4	224.335777777778	210.903914814815	203.253496296296	15	1.035	5.175	7.68
189.904	0	18	response	500	4	224.335777777778	210.903914814815	203.253496296296	15	1.035	5.175	7.68
189.904	0.5	18	feedback	500	4	224.335777777778	210.903914814815	203.253496296296	15	1.035	5.175	7.68
194.003	4.00300000000001	19	valuation	450	2	230.039977777778	202.773103703704	181.145396296296	182	21.7672	112.112	19.1828
198.006	1.30699999999999	19	rating	450	2	230.039977777778	202.773103703704	181.145396296296	182	21.7672	112.112	19.1828
199.313	0	19	response	450	2	230.039977777778	202.773103703704	181.145396296296	182	21.7672	112.112	19.1828
199.313	0.5	19	feedback	450	2	230.039977777778	202.773103703704	181.145396296296	182	21.7672	112.112	19.1828
206.416	4.005	20	valuation	51	3	226.266981481481	216.113044444444	199.440296296296	500	32.05	84.25	212.6
210.421	0.859000000000009	20	rating	51	3	226.266981481481	216.113044444444	199.440296296296	500	32.05	84.25	212.6
211.28	0	20	response	51	3	226.266981481481	216.113044444444	199.440296296296	500	32.05	84.25	212.6
211.28	0.5	20	feedback	51	3	226.266981481481	216.113044444444	199.440296296296	500	32.05	84.25	212.6
216.036	4.00299999999999	21	valuation	308	4	249.816566666667	222.548488888889	208.410192592593	30	5.28	0.69	10.65
220.039	0.456000000000017	21	rating	308	4	249.816566666667	222.548488888889	208.410192592593	30	5.28	0.69	10.65
220.495	0	21	response	308	4	249.816566666667	222.548488888889	208.410192592593	30	5.28	0.69	10.65
220.495	0.5	21	feedback	308	4	249.816566666667	222.548488888889	208.410192592593	30	5.28	0.69	10.65
227.202	4.005	22	valuation	411	2	211.580766666667	201.367574074074	172.838374074074	380	13.414	1.444	19
231.207	0.530000000000001	22	rating	411	2	211.580766666667	201.367574074074	172.838374074074	380	13.414	1.444	19
231.737	0	22	response	411	2	211.580766666667	201.367574074074	172.838374074074	380	13.414	1.444	19
231.737	0.5	22	feedback	411	2	211.580766666667	201.367574074074	172.838374074074	380	13.414	1.444	19
235.073	4.005	23	valuation	333	1	235.467907407407	238.388866666667	228.73257037037	180	1.62	0.54	15.3
239.078	1.511	23	rating	333	1	235.467907407407	238.388866666667	228.73257037037	180	1.62	0.54	15.3
240.589	0	23	response	333	1	235.467907407407	238.388866666667	228.73257037037	180	1.62	0.54	15.3
240.589	0.5	23	feedback	333	1	235.467907407407	238.388866666667	228.73257037037	180	1.62	0.54	15.3
243.263	4.00399999999999	24	valuation	158	4	240.114377777778	223.642777777778	199.765466666667	48	2.928	10.08	32.64
247.267	1.44900000000001	24	rating	158	4	240.114377777778	223.642777777778	199.765466666667	48	2.928	10.08	32.64
248.716	0	24	response	158	4	240.114377777778	223.642777777778	199.765466666667	48	2.928	10.08	32.64
248.716	0.5	24	feedback	158	4	240.114377777778	223.642777777778	199.765466666667	48	2.928	10.08	32.64
256.598	4.00299999999999	25	valuation	486	4	228.249133333333	213.26007037037	195.862514814815	540	50.274	64.638	103.464
260.601	0.814000000000021	25	rating	486	4	228.249133333333	213.26007037037	195.862514814815	540	50.274	64.638	103.464
261.415	0	25	response	486	4	228.249133333333	213.26007037037	195.862514814815	540	50.274	64.638	103.464
261.415	0.5	25	feedback	486	4	228.249133333333	213.26007037037	195.862514814815	540	50.274	64.638	103.464
269.819	4.00799999999998	26	valuation	72	4	225.051766666667	210.952637037037	195.053596296296	243	23.0121	17.01	43.011
273.827	0.637	26	rating	72	4	225.051766666667	210.952637037037	195.053596296296	243	23.0121	17.01	43.011
274.464	0	26	response	72	4	225.051766666667	210.952637037037	195.053596296296	243	23.0121	17.01	43.011
274.464	0.5	26	feedback	72	4	225.051766666667	210.952637037037	195.053596296296	243	23.0121	17.01	43.011
281.824	4.00399999999996	27	valuation	43	3	245.816162962963	226.076507407407	162.769114814815	20	1.096	7.88	8.12
285.828	0.742000000000019	27	rating	43	3	245.816162962963	226.076507407407	162.769114814815	20	1.096	7.88	8.12
286.57	0	27	response	43	3	245.816162962963	226.076507407407	162.769114814815	20	1.096	7.88	8.12
286.57	0.5	27	feedback	43	3	245.816162962963	226.076507407407	162.769114814815	20	1.096	7.88	8.12
292.497	4.00399999999996	28	valuation	515	3	246.682818518519	241.276377777778	211.615737037037	200	57.4	60	0
296.501	0.91900000000004	28	rating	515	3	246.682818518519	241.276377777778	211.615737037037	200	57.4	60	0
297.42	0	28	response	515	3	246.682818518519	241.276377777778	211.615737037037	200	57.4	60	0
297.42	0.5	28	feedback	515	3	246.682818518519	241.276377777778	211.615737037037	200	57.4	60	0
303.226	4.005	29	valuation	527	4	239.503748148148	231.566559259259	224.293185185185	180	18	19.8	39.6
307.231	0.557000000000016	29	rating	527	4	239.503748148148	231.566559259259	224.293185185185	180	18	19.8	39.6
307.788	0	29	response	527	4	239.503748148148	231.566559259259	224.293185185185	180	18	19.8	39.6
307.788	0.5	29	feedback	527	4	239.503748148148	231.566559259259	224.293185185185	180	18	19.8	39.6
315.017	4.00900000000001	30	valuation	435	1	210.431696296296	216.182181481482	193.747059259259	385	17.1325	1.309	12.6665
319.026	0.682999999999993	30	rating	435	1	210.431696296296	216.182181481482	193.747059259259	385	17.1325	1.309	12.6665
319.709	0	30	response	435	1	210.431696296296	216.182181481482	193.747059259259	385	17.1325	1.309	12.6665
319.709	0.5	30	feedback	435	1	210.431696296296	216.182181481482	193.747059259259	385	17.1325	1.309	12.6665
324.069	4.00399999999996	31	valuation	132	3	233.748444444444	222.715862962963	197.658111111111	350	101.5	105	0
328.073	1.91300000000001	31	rating	132	3	233.748444444444	222.715862962963	197.658111111111	350	101.5	105	0
329.986	0	31	response	132	3	233.748444444444	222.715862962963	197.658111111111	350	101.5	105	0
329.986	0.5	31	feedback	132	3	233.748444444444	222.715862962963	197.658111111111	350	101.5	105	0
336.433	4.005	32	valuation	104	3	244.397725925926	231.58552962963	203.947466666667	25	1.475	5.5	15.5
340.438	0.660000000000025	32	rating	104	3	244.397725925926	231.58552962963	203.947466666667	25	1.475	5.5	15.5
341.098	0	32	response	104	3	244.397725925926	231.58552962963	203.947466666667	25	1.475	5.5	15.5
341.098	0.5	32	feedback	104	3	244.397725925926	231.58552962963	203.947466666667	25	1.475	5.5	15.5
349.632	4.00400000000002	33	valuation	433	1	240.476533333333	216.10922962963	201.709562962963	1200	16.8	2.4	55.2
353.636	0.838999999999999	33	rating	433	1	240.476533333333	216.10922962963	201.709562962963	1200	16.8	2.4	55.2
354.475	0	33	response	433	1	240.476533333333	216.10922962963	201.709562962963	1200	16.8	2.4	55.2
354.475	0.5	33	feedback	433	1	240.476533333333	216.10922962963	201.709562962963	1200	16.8	2.4	55.2
360.791	4.01100000000002	34	valuation	437	1	227.362862962963	208.736588888889	193.066466666667	800	16	0.88	118.4
364.802	0.822000000000003	34	rating	437	1	227.362862962963	208.736588888889	193.066466666667	800	16	0.88	118.4
365.624	0	34	response	437	1	227.362862962963	208.736588888889	193.066466666667	800	16	0.88	118.4
365.624	0.5	34	feedback	437	1	227.362862962963	208.736588888889	193.066466666667	800	16	0.88	118.4
369.331	4.00399999999996	35	valuation	327	3	238.744462962963	227.05712962963	175.484018518519	225	4.635	5.6025	25.7625
373.335	1.08500000000004	35	rating	327	3	238.744462962963	227.05712962963	175.484018518519	225	4.635	5.6025	25.7625
374.42	0	35	response	327	3	238.744462962963	227.05712962963	175.484018518519	225	4.635	5.6025	25.7625
374.42	0.5	35	feedback	327	3	238.744462962963	227.05712962963	175.484018518519	225	4.635	5.6025	25.7625
378.648	4.00399999999996	36	valuation	280	3	225.620166666667	214.703259259259	214.158807407407	60	0.6	0.18	7.98
382.652	1.02600000000001	36	rating	280	3	225.620166666667	214.703259259259	214.158807407407	60	0.6	0.18	7.98
383.678	0	36	response	280	3	225.620166666667	214.703259259259	214.158807407407	60	0.6	0.18	7.98
383.678	0.5	36	feedback	280	3	225.620166666667	214.703259259259	214.158807407407	60	0.6	0.18	7.98
386.241	4.00400000000002	37	valuation	458	3	242.648577777778	229.380874074074	183.049566666667	92	0.414	0.3496	4.7564
390.245	0.730000000000018	37	rating	458	3	242.648577777778	229.380874074074	183.049566666667	92	0.414	0.3496	4.7564
390.975	0	37	response	458	3	242.648577777778	229.380874074074	183.049566666667	92	0.414	0.3496	4.7564
390.975	0.5	37	feedback	458	3	242.648577777778	229.380874074074	183.049566666667	92	0.414	0.3496	4.7564
394.03	4.00400000000002	38	valuation	300	3	238.003896296296	224.160344444444	207.635792592593	500	35	16.7	238.5
398.034	0.766999999999996	38	rating	300	3	238.003896296296	224.160344444444	207.635792592593	500	35	16.7	238.5
398.801	0	38	response	300	3	238.003896296296	224.160344444444	207.635792592593	500	35	16.7	238.5
398.801	0.5	38	feedback	300	3	238.003896296296	224.160344444444	207.635792592593	500	35	16.7	238.5
405.379	4.005	39	valuation	60	4	233.02332962963	218.918403703704	196.226703703704	220	8.25	37.488	75.009
409.384	1.20699999999999	39	rating	60	4	233.02332962963	218.918403703704	196.226703703704	220	8.25	37.488	75.009
410.591	0	39	response	60	4	233.02332962963	218.918403703704	196.226703703704	220	8.25	37.488	75.009
410.591	0.5	39	feedback	60	4	233.02332962963	218.918403703704	196.226703703704	220	8.25	37.488	75.009
416.255	4.00400000000002	40	valuation	551	3	232.550692592593	223.630081481482	191.2882	200	13	13.8	59
420.259	1.27999999999997	40	rating	551	3	232.550692592593	223.630081481482	191.2882	200	13	13.8	59
421.539	0	40	response	551	3	232.550692592593	223.630081481482	191.2882	200	13	13.8	59
421.539	0.5	40	feedback	551	3	232.550692592593	223.630081481482	191.2882	200	13	13.8	59
425.506	4.00400000000002	41	valuation	427	1	245.42262962963	227.004585185185	206.62447037037	15	2.16	9.375	1.59
429.51	0.615000000000009	41	rating	427	1	245.42262962963	227.004585185185	206.62447037037	15	2.16	9.375	1.59
430.125	0	41	response	427	1	245.42262962963	227.004585185185	206.62447037037	15	2.16	9.375	1.59
430.125	0.5	41	feedback	427	1	245.42262962963	227.004585185185	206.62447037037	15	2.16	9.375	1.59
437.903	4.00899999999996	42	valuation	273	1	224.129455555556	230.123711111111	219.557281481482	70	0.7	0.07	0.84
441.912	0.838999999999999	42	rating	273	1	224.129455555556	230.123711111111	219.557281481482	70	0.7	0.07	0.84
442.751	0	42	response	273	1	224.129455555556	230.123711111111	219.557281481482	70	0.7	0.07	0.84
442.751	0.5	42	feedback	273	1	224.129455555556	230.123711111111	219.557281481482	70	0.7	0.07	0.84
450.242	4.005	43	valuation	252	1	234.366414814815	236.86237037037	220.153803703704	300	2.4	0.48	3.78
454.247	0.608000000000004	43	rating	252	1	234.366414814815	236.86237037037	220.153803703704	300	2.4	0.48	3.78
454.855	0	43	response	252	1	234.366414814815	236.86237037037	220.153803703704	300	2.4	0.48	3.78
454.855	0.5	43	feedback	252	1	234.366414814815	236.86237037037	220.153803703704	300	2.4	0.48	3.78
463.131	4.00800000000004	44	valuation	384	2	221.59467037037	205.768237037037	170.292388888889	250	32.5	16	120
467.139	0.664999999999964	44	rating	384	2	221.59467037037	205.768237037037	170.292388888889	250	32.5	16	120
467.804	0	44	response	384	2	221.59467037037	205.768237037037	170.292388888889	250	32.5	16	120
467.804	0.5	44	feedback	384	2	221.59467037037	205.768237037037	170.292388888889	250	32.5	16	120
473.229	4.00400000000002	45	valuation	359	1	235.124337037037	234.318940740741	220.059733333333	1000	13.3	1	14.3
477.233	0.603999999999985	45	rating	359	1	235.124337037037	234.318940740741	220.059733333333	1000	13.3	1	14.3
477.837	0	45	response	359	1	235.124337037037	234.318940740741	220.059733333333	1000	13.3	1	14.3
477.837	0.5	45	feedback	359	1	235.124337037037	234.318940740741	220.059733333333	1000	13.3	1	14.3
481.023	4.00299999999999	46	valuation	415	2	250.976948148148	237.290459259259	168.683474074074	184	0.828	0.6992	9.5128
485.026	0.747000000000014	46	rating	415	2	250.976948148148	237.290459259259	168.683474074074	184	0.828	0.6992	9.5128
485.773	0	46	response	415	2	250.976948148148	237.290459259259	168.683474074074	184	0.828	0.6992	9.5128
485.773	0.5	46	feedback	415	2	250.976948148148	237.290459259259	168.683474074074	184	0.828	0.6992	9.5128
488.718	4.00399999999996	47	valuation	229	2	215.630496296296	207.42947037037	184.50462962963	130	2.249	0.455	4.55
492.722	0.908999999999992	47	rating	229	2	215.630496296296	207.42947037037	184.50462962963	130	2.249	0.455	4.55
493.631	0	47	response	229	2	215.630496296296	207.42947037037	184.50462962963	130	2.249	0.455	4.55
493.631	0.5	47	feedback	229	2	215.630496296296	207.42947037037	184.50462962963	130	2.249	0.455	4.55
