onset	duration	trial_id	trial_type	image_id	rating_value	red	green	blue	gram	protein	fat	carb
10.019	4.004	1	valuation	179	3	210.192144444444	193.826733333333	179.006907407407	450	23.85	99	217.35
14.023	1.005	1	rating	179	3	210.192144444444	193.826733333333	179.006907407407	450	23.85	99	217.35
15.028	0	1	response	179	3	210.192144444444	193.826733333333	179.006907407407	450	23.85	99	217.35
15.028	0.5	1	feedback	179	3	210.192144444444	193.826733333333	179.006907407407	450	23.85	99	217.35
21.143	4.004	2	valuation	209	4	194.382207407407	176.692622222222	173.605392592593	150	1.5	0.75	9
25.147	1.518	2	rating	209	4	194.382207407407	176.692622222222	173.605392592593	150	1.5	0.75	9
26.665	0	2	response	209	4	194.382207407407	176.692622222222	173.605392592593	150	1.5	0.75	9
26.665	0.5	2	feedback	209	4	194.382207407407	176.692622222222	173.605392592593	150	1.5	0.75	9
30.731	4.005	3	valuation	501	3	222.844892592593	203.470518518518	188.602844444444	32	1.504	8.96	17.28
34.736	1.01900000000001	3	rating	501	3	222.844892592593	203.470518518518	188.602844444444	32	1.504	8.96	17.28
35.755	0	3	response	501	3	222.844892592593	203.470518518518	188.602844444444	32	1.504	8.96	17.28
35.755	0.5	3	feedback	501	3	222.844892592593	203.470518518518	188.602844444444	32	1.504	8.96	17.28
39.394	4.004	4	valuation	413	4	219.870248148148	208.538148148148	184.726692592593	195	1.6965	1.0725	18.2715
43.398	1.38999999999999	4	rating	413	4	219.870248148148	208.538148148148	184.726692592593	195	1.6965	1.0725	18.2715
44.788	0	4	response	413	4	219.870248148148	208.538148148148	184.726692592593	195	1.6965	1.0725	18.2715
44.788	0.5	4	feedback	413	4	219.870248148148	208.538148148148	184.726692592593	195	1.6965	1.0725	18.2715
47.323	4.004	5	valuation	498	1	238.902148148148	210.754192592593	192.474385185185	60	10.74	15.06	0.66
51.327	0.597000000000001	5	rating	498	1	238.902148148148	210.754192592593	192.474385185185	60	10.74	15.06	0.66
51.924	0	5	response	498	1	238.902148148148	210.754192592593	192.474385185185	60	10.74	15.06	0.66
51.924	0.5	5	feedback	498	1	238.902148148148	210.754192592593	192.474385185185	60	10.74	15.06	0.66
56.144	4.004	6	valuation	456	1	245.849866666667	237.255348148148	220.3531	500	2.5	0	15.6
60.148	0.988999999999997	6	rating	456	1	245.849866666667	237.255348148148	220.3531	500	2.5	0	15.6
61.137	0	6	response	456	1	245.849866666667	237.255348148148	220.3531	500	2.5	0	15.6
61.137	0.5	6	feedback	456	1	245.849866666667	237.255348148148	220.3531	500	2.5	0	15.6
67.501	4.00399999999999	7	valuation	207	4	236.945751851852	222.32802962963	217.782514814815	50	0.55	0.1	3.6
71.505	0.707999999999998	7	rating	207	4	236.945751851852	222.32802962963	217.782514814815	50	0.55	0.1	3.6
72.213	0	7	response	207	4	236.945751851852	222.32802962963	217.782514814815	50	0.55	0.1	3.6
72.213	0.5	7	feedback	207	4	236.945751851852	222.32802962963	217.782514814815	50	0.55	0.1	3.6
78.086	4.004	8	valuation	388	1	251.513644444444	251.240011111111	248.662714814815	150	0.15	0	3.9
82.09	0.706999999999994	8	rating	388	1	251.513644444444	251.240011111111	248.662714814815	150	0.15	0	3.9
82.797	0	8	response	388	1	251.513644444444	251.240011111111	248.662714814815	150	0.15	0	3.9
82.797	0.5	8	feedback	388	1	251.513644444444	251.240011111111	248.662714814815	150	0.15	0	3.9
91.202	4.00700000000001	9	valuation	254	4	231.593918518519	218.161466666667	216.226944444444	120	1.548	0.588	15.324
95.209	1.14699999999999	9	rating	254	4	231.593918518519	218.161466666667	216.226944444444	120	1.548	0.588	15.324
96.356	0	9	response	254	4	231.593918518519	218.161466666667	216.226944444444	120	1.548	0.588	15.324
96.356	0.5	9	feedback	254	4	231.593918518519	218.161466666667	216.226944444444	120	1.548	0.588	15.324
101.441	4.005	10	valuation	475	2	247.170337037037	225.989062962963	195.605840740741	95	2.85	13.3	28.5
105.446	0.808000000000007	10	rating	475	2	247.170337037037	225.989062962963	195.605840740741	95	2.85	13.3	28.5
106.254	0	10	response	475	2	247.170337037037	225.989062962963	195.605840740741	95	2.85	13.3	28.5
106.254	0.5	10	feedback	475	2	247.170337037037	225.989062962963	195.605840740741	95	2.85	13.3	28.5
114.15	4.003	11	valuation	146	1	242.953496296296	228.415333333333	203.3177	100	6.8	9.4	34.3
118.153	0.823999999999998	11	rating	146	1	242.953496296296	228.415333333333	203.3177	100	6.8	9.4	34.3
118.977	0	11	response	146	1	242.953496296296	228.415333333333	203.3177	100	6.8	9.4	34.3
118.977	0.5	11	feedback	146	1	242.953496296296	228.415333333333	203.3177	100	6.8	9.4	34.3
124.574	4.00500000000001	12	valuation	479	1	236.361074074074	206.875696296296	182.656537037037	175	0.6475	0.1225	3.0275
128.579	1.04599999999999	12	rating	479	1	236.361074074074	206.875696296296	182.656537037037	175	0.6475	0.1225	3.0275
129.625	0	12	response	479	1	236.361074074074	206.875696296296	182.656537037037	175	0.6475	0.1225	3.0275
129.625	0.5	12	feedback	479	1	236.361074074074	206.875696296296	182.656537037037	175	0.6475	0.1225	3.0275
138.159	4.00700000000001	13	valuation	470	4	222.446555555556	213.772659259259	210.057177777778	240	19.2	25.56	38.4
142.166	1.15899999999999	13	rating	470	4	222.446555555556	213.772659259259	210.057177777778	240	19.2	25.56	38.4
143.325	0	13	response	470	4	222.446555555556	213.772659259259	210.057177777778	240	19.2	25.56	38.4
143.325	0.5	13	feedback	470	4	222.446555555556	213.772659259259	210.057177777778	240	19.2	25.56	38.4
150.708	6.505	14	miss	1	0	220.202096296296	209.477455555556	205.770662962963	150	9	25.71	49.335
161.146	4.00400000000002	15	valuation	123	1	248.051559259259	246.067514814815	243.564925925926	100	0.7	2.7	90.9
165.15	0.754999999999995	15	rating	123	1	248.051559259259	246.067514814815	243.564925925926	100	0.7	2.7	90.9
165.905	0	15	response	123	1	248.051559259259	246.067514814815	243.564925925926	100	0.7	2.7	90.9
165.905	0.5	15	feedback	123	1	248.051559259259	246.067514814815	243.564925925926	100	0.7	2.7	90.9
168.578	4.005	16	valuation	130	2	239.940644444444	234.521937037037	224.427055555556	120	6	21.6	72
172.583	1.464	16	rating	130	2	239.940644444444	234.521937037037	224.427055555556	120	6	21.6	72
174.047	0	16	response	130	2	239.940644444444	234.521937037037	224.427055555556	120	6	21.6	72
174.047	0.5	16	feedback	130	2	239.940644444444	234.521937037037	224.427055555556	120	6	21.6	72
181.306	4.005	17	valuation	442	2	251.495488888889	214.690540740741	192.511748148148	170	2.21	0.85	10.88
185.311	0.625	17	rating	442	2	251.495488888889	214.690540740741	192.511748148148	170	2.21	0.85	10.88
185.936	0	17	response	442	2	251.495488888889	214.690540740741	192.511748148148	170	2.21	0.85	10.88
185.936	0.5	17	feedback	442	2	251.495488888889	214.690540740741	192.511748148148	170	2.21	0.85	10.88
191.405	4.005	18	valuation	303	2	228.245851851852	221.621888888889	196.561248148148	50	1.23	0.14	1.17
195.41	1.24100000000001	18	rating	303	2	228.245851851852	221.621888888889	196.561248148148	50	1.23	0.14	1.17
196.651	0	18	response	303	2	228.245851851852	221.621888888889	196.561248148148	50	1.23	0.14	1.17
196.651	0.5	18	feedback	303	2	228.245851851852	221.621888888889	196.561248148148	50	1.23	0.14	1.17
204.32	4.00800000000001	19	valuation	128	1	235.053166666667	226.200637037037	221.721766666667	2000	20	6	1900
208.328	0.736999999999995	19	rating	128	1	235.053166666667	226.200637037037	221.721766666667	2000	20	6	1900
209.065	0	19	response	128	1	235.053166666667	226.200637037037	221.721766666667	2000	20	6	1900
209.065	0.5	19	feedback	128	1	235.053166666667	226.200637037037	221.721766666667	2000	20	6	1900
213.388	4.00399999999999	20	valuation	125	2	233.642818518518	233.168048148148	226.704066666667	250	2.5	0.75	237.5
217.392	0.875	20	rating	125	2	233.642818518518	233.168048148148	226.704066666667	250	2.5	0.75	237.5
218.267	0	20	response	125	2	233.642818518518	233.168048148148	226.704066666667	250	2.5	0.75	237.5
218.267	0.5	20	feedback	125	2	233.642818518518	233.168048148148	226.704066666667	250	2.5	0.75	237.5
221.971	4.00399999999999	21	valuation	196	2	206.006196296296	197.354396296296	175.3604	150	2.595	0.525	5.25
225.975	0.983000000000004	21	rating	196	2	206.006196296296	197.354396296296	175.3604	150	2.595	0.525	5.25
226.958	0	21	response	196	2	206.006196296296	197.354396296296	175.3604	150	2.595	0.525	5.25
226.958	0.5	21	feedback	196	2	206.006196296296	197.354396296296	175.3604	150	2.595	0.525	5.25
233.576	4.00400000000002	22	valuation	490	3	238.84767037037	229.513007407407	193.213766666667	40	1	0.42	5.2
237.58	0.893000000000001	22	rating	490	3	238.84767037037	229.513007407407	193.213766666667	40	1	0.42	5.2
238.473	0	22	response	490	3	238.84767037037	229.513007407407	193.213766666667	40	1	0.42	5.2
238.473	0.5	22	feedback	490	3	238.84767037037	229.513007407407	193.213766666667	40	1	0.42	5.2
245.474	4.00900000000001	23	valuation	168	3	234.105851851852	222.37312962963	215.18542962963	34	2.176	9.894	20.57
249.483	1.38900000000001	23	rating	168	3	234.105851851852	222.37312962963	215.18542962963	34	2.176	9.894	20.57
250.872	0	23	response	168	3	234.105851851852	222.37312962963	215.18542962963	34	2.176	9.894	20.57
250.872	0.5	23	feedback	168	3	234.105851851852	222.37312962963	215.18542962963	34	2.176	9.894	20.57
259.15	4.00400000000002	24	valuation	150	3	227.759177777778	224.102914814815	218.988918518519	60	4.62	9.12	31.98
263.154	1.048	24	rating	150	3	227.759177777778	224.102914814815	218.988918518519	60	4.62	9.12	31.98
264.202	0	24	response	150	3	227.759177777778	224.102914814815	218.988918518519	60	4.62	9.12	31.98
264.202	0.5	24	feedback	150	3	227.759177777778	224.102914814815	218.988918518519	60	4.62	9.12	31.98
268.779	4.00400000000002	25	valuation	121	3	241.824925925926	230.59102962963	217.331840740741	10	0.68	3.057	5.332
272.783	1.49699999999996	25	rating	121	3	241.824925925926	230.59102962963	217.331840740741	10	0.68	3.057	5.332
274.28	0	25	response	121	3	241.824925925926	230.59102962963	217.331840740741	10	0.68	3.057	5.332
274.28	0.5	25	feedback	121	3	241.824925925926	230.59102962963	217.331840740741	10	0.68	3.057	5.332
281.155	4.00800000000004	26	valuation	536	1	250.844533333333	226.499959259259	215.104988888889	170	34	5.1	1.7
285.163	0.84899999999999	26	rating	536	1	250.844533333333	226.499959259259	215.104988888889	170	34	5.1	1.7
286.012	0	26	response	536	1	250.844533333333	226.499959259259	215.104988888889	170	34	5.1	1.7
286.012	0.5	26	feedback	536	1	250.844533333333	226.499959259259	215.104988888889	170	34	5.1	1.7
289.851	4.005	27	valuation	543	3	227.375385185185	233.356462962963	195.138307407407	500	3.5	1.5	78
293.856	1.06799999999998	27	rating	543	3	227.375385185185	233.356462962963	195.138307407407	500	3.5	1.5	78
294.924	0	27	response	543	3	227.375385185185	233.356462962963	195.138307407407	500	3.5	1.5	78
294.924	0.5	27	feedback	543	3	227.375385185185	233.356462962963	195.138307407407	500	3.5	1.5	78
302.053	4.00900000000001	28	valuation	461	2	216.267459259259	210.025503703704	199.451151851852	1943	34.3911	4.6632	46.4377
306.062	1.815	28	rating	461	2	216.267459259259	210.025503703704	199.451151851852	1943	34.3911	4.6632	46.4377
307.877	0	28	response	461	2	216.267459259259	210.025503703704	199.451151851852	1943	34.3911	4.6632	46.4377
307.877	0.5	28	feedback	461	2	216.267459259259	210.025503703704	199.451151851852	1943	34.3911	4.6632	46.4377
312.836	4.00399999999996	29	valuation	463	1	225.503992592593	202.423722222222	163.526196296296	1020	12.036	4.488	132.396
316.84	1.166	29	rating	463	1	225.503992592593	202.423722222222	163.526196296296	1020	12.036	4.488	132.396
318.006	0	29	response	463	1	225.503992592593	202.423722222222	163.526196296296	1020	12.036	4.488	132.396
318.006	0.5	29	feedback	463	1	225.503992592593	202.423722222222	163.526196296296	1020	12.036	4.488	132.396
320.819	4.00399999999996	30	valuation	253	1	220.4769	228.2706	204.946774074074	225	1.44	0.405	4.095
324.823	0.881000000000029	30	rating	253	1	220.4769	228.2706	204.946774074074	225	1.44	0.405	4.095
325.704	0	30	response	253	1	220.4769	228.2706	204.946774074074	225	1.44	0.405	4.095
325.704	0.5	30	feedback	253	1	220.4769	228.2706	204.946774074074	225	1.44	0.405	4.095
333.218	4.00700000000001	31	valuation	29	2	214.292388888889	199.70152962963	173.978244444444	500	32.05	84.25	212.6
337.225	1.71299999999997	31	rating	29	2	214.292388888889	199.70152962963	173.978244444444	500	32.05	84.25	212.6
338.938	0	31	response	29	2	214.292388888889	199.70152962963	173.978244444444	500	32.05	84.25	212.6
338.938	0.5	31	feedback	29	2	214.292388888889	199.70152962963	173.978244444444	500	32.05	84.25	212.6
344.178	4.005	32	valuation	239	2	238.285944444444	218.642877777778	197.982814814815	600	7.32	2.22	29.22
348.183	1.24299999999999	32	rating	239	2	238.285944444444	218.642877777778	197.982814814815	600	7.32	2.22	29.22
349.426	0	32	response	239	2	238.285944444444	218.642877777778	197.982814814815	600	7.32	2.22	29.22
349.426	0.5	32	feedback	239	2	238.285944444444	218.642877777778	197.982814814815	600	7.32	2.22	29.22
352.601	4.00400000000002	33	valuation	555	4	232.44067037037	208.196603703704	175.47767037037	500	130.5	46.5	32.5
356.605	1.28699999999998	33	rating	555	4	232.44067037037	208.196603703704	175.47767037037	500	130.5	46.5	32.5
357.892	0	33	response	555	4	232.44067037037	208.196603703704	175.47767037037	500	130.5	46.5	32.5
357.892	0.5	33	feedback	555	4	232.44067037037	208.196603703704	175.47767037037	500	130.5	46.5	32.5
364.129	4.00399999999996	34	valuation	195	2	242.329581481482	243.653844444444	225.12022962963	11	0.0473	0.0154	0.143
368.133	0.754000000000019	34	rating	195	2	242.329581481482	243.653844444444	225.12022962963	11	0.0473	0.0154	0.143
368.887	0	34	response	195	2	242.329581481482	243.653844444444	225.12022962963	11	0.0473	0.0154	0.143
368.887	0.5	34	feedback	195	2	242.329581481482	243.653844444444	225.12022962963	11	0.0473	0.0154	0.143
371.96	4.00400000000002	35	valuation	132	4	233.748444444444	222.715862962963	197.658111111111	350	101.5	105	0
375.964	0.740000000000009	35	rating	132	4	233.748444444444	222.715862962963	197.658111111111	350	101.5	105	0
376.704	0	35	response	132	4	233.748444444444	222.715862962963	197.658111111111	350	101.5	105	0
376.704	0.5	35	feedback	132	4	233.748444444444	222.715862962963	197.658111111111	350	101.5	105	0
381.535	4.00399999999996	36	valuation	272	2	226.874996296296	232.635744444444	227.7664	30	1.074	0.18	0.48
385.539	1.35700000000003	36	rating	272	2	226.874996296296	232.635744444444	227.7664	30	1.074	0.18	0.48
386.896	0	36	response	272	2	226.874996296296	232.635744444444	227.7664	30	1.074	0.18	0.48
386.896	0.5	36	feedback	272	2	226.874996296296	232.635744444444	227.7664	30	1.074	0.18	0.48
390.354	4.00400000000002	37	valuation	327	4	238.744462962963	227.05712962963	175.484018518519	225	4.635	5.6025	25.7625
394.358	0.663000000000011	37	rating	327	4	238.744462962963	227.05712962963	175.484018518519	225	4.635	5.6025	25.7625
395.021	0	37	response	327	4	238.744462962963	227.05712962963	175.484018518519	225	4.635	5.6025	25.7625
395.021	0.5	37	feedback	327	4	238.744462962963	227.05712962963	175.484018518519	225	4.635	5.6025	25.7625
402.789	4.00400000000002	38	valuation	167	3	183.468914814815	170.620977777778	167.364133333333	100	7.5	29.5	58.5
406.793	1.089	38	rating	167	3	183.468914814815	170.620977777778	167.364133333333	100	7.5	29.5	58.5
407.882	0	38	response	167	3	183.468914814815	170.620977777778	167.364133333333	100	7.5	29.5	58.5
407.882	0.5	38	feedback	167	3	183.468914814815	170.620977777778	167.364133333333	100	7.5	29.5	58.5
414.657	4.00800000000004	39	valuation	387	2	227.632918518519	210.873792592593	202.3937	3500	549.5	1085	0
418.665	0.743999999999971	39	rating	387	2	227.632918518519	210.873792592593	202.3937	3500	549.5	1085	0
419.409	0	39	response	387	2	227.632918518519	210.873792592593	202.3937	3500	549.5	1085	0
419.409	0.5	39	feedback	387	2	227.632918518519	210.873792592593	202.3937	3500	549.5	1085	0
424.139	4.005	40	valuation	290	2	240.033566666667	230.904607407407	213.06617037037	300	15	90.42	187.5
428.144	1.755	40	rating	290	2	240.033566666667	230.904607407407	213.06617037037	300	15	90.42	187.5
429.899	0	40	response	290	2	240.033566666667	230.904607407407	213.06617037037	300	15	90.42	187.5
429.899	0.5	40	feedback	290	2	240.033566666667	230.904607407407	213.06617037037	300	15	90.42	187.5
435.879	4.00399999999996	41	valuation	445	1	249.848862962963	231.75077037037	169.403055555556	170	2.04	0.51	9.01
439.883	0.738	41	rating	445	1	249.848862962963	231.75077037037	169.403055555556	170	2.04	0.51	9.01
440.621	0	41	response	445	1	249.848862962963	231.75077037037	169.403055555556	170	2.04	0.51	9.01
440.621	0.5	41	feedback	445	1	249.848862962963	231.75077037037	169.403055555556	170	2.04	0.51	9.01
443.922	4.005	42	valuation	446	3	241.791362962963	214.010848148148	202.937925925926	80	0.8	0	2.4
447.927	0.783999999999992	42	rating	446	3	241.791362962963	214.010848148148	202.937925925926	80	0.8	0	2.4
448.711	0	42	response	446	3	241.791362962963	214.010848148148	202.937925925926	80	0.8	0	2.4
448.711	0.5	42	feedback	446	3	241.791362962963	214.010848148148	202.937925925926	80	0.8	0	2.4
454.052	4.00399999999996	43	valuation	217	4	222.532559259259	217.896466666667	203.950048148148	195	1.95	0.8775	16.692
458.056	0.79400000000004	43	rating	217	4	222.532559259259	217.896466666667	203.950048148148	195	1.95	0.8775	16.692
458.85	0	43	response	217	4	222.532559259259	217.896466666667	203.950048148148	195	1.95	0.8775	16.692
458.85	0.5	43	feedback	217	4	222.532559259259	217.896466666667	203.950048148148	195	1.95	0.8775	16.692
461.766	4.005	44	valuation	149	2	225.942218518519	180.648325925926	148.457092592593	70	10.5	23.1	28
465.771	0.778999999999996	44	rating	149	2	225.942218518519	180.648325925926	148.457092592593	70	10.5	23.1	28
466.55	0	44	response	149	2	225.942218518519	180.648325925926	148.457092592593	70	10.5	23.1	28
466.55	0.5	44	feedback	149	2	225.942218518519	180.648325925926	148.457092592593	70	10.5	23.1	28
474.572	4.00400000000002	45	valuation	512	2	232.360025925926	221.404796296296	206.864848148148	31	5.0003	0.7998	7.6012
478.576	1.21099999999996	45	rating	512	2	232.360025925926	221.404796296296	206.864848148148	31	5.0003	0.7998	7.6012
479.787	0	45	response	512	2	232.360025925926	221.404796296296	206.864848148148	31	5.0003	0.7998	7.6012
479.787	0.5	45	feedback	512	2	232.360025925926	221.404796296296	206.864848148148	31	5.0003	0.7998	7.6012
486.286	4.00299999999999	46	valuation	279	4	241.263014814815	240.356188888889	238.881318518519	65	3.38	1.105	18.785
490.289	0.901999999999987	46	rating	279	4	241.263014814815	240.356188888889	238.881318518519	65	3.38	1.105	18.785
491.191	0	46	response	279	4	241.263014814815	240.356188888889	238.881318518519	65	3.38	1.105	18.785
491.191	0.5	46	feedback	279	4	241.263014814815	240.356188888889	238.881318518519	65	3.38	1.105	18.785
499.343	4.00399999999996	47	valuation	222	4	219.130407407407	199.355118518519	187.088674074074	60	0.468	0.234	3.198
503.347	0.77600000000001	47	rating	222	4	219.130407407407	199.355118518519	187.088674074074	60	0.468	0.234	3.198
504.123	0	47	response	222	4	219.130407407407	199.355118518519	187.088674074074	60	0.468	0.234	3.198
504.123	0.5	47	feedback	222	4	219.130407407407	199.355118518519	187.088674074074	60	0.468	0.234	3.198
509.877	4.00899999999996	48	valuation	12	4	216.015559259259	207.838151851852	191.304425925926	205	29.4585	42.23	10.086
513.886	1.09100000000001	48	rating	12	4	216.015559259259	207.838151851852	191.304425925926	205	29.4585	42.23	10.086
514.977	0	48	response	12	4	216.015559259259	207.838151851852	191.304425925926	205	29.4585	42.23	10.086
514.977	0.5	48	feedback	12	4	216.015559259259	207.838151851852	191.304425925926	205	29.4585	42.23	10.086
