onset	duration	trial_id	trial_type	image_id	rating_value	red	green	blue	gram	protein	fat	carb
10.028	4.003	1	valuation	263	2	232.085611111111	221.1082	211.829974074074	118	2.5842	0.2242	0.531
14.031	0.536	1	rating	263	2	232.085611111111	221.1082	211.829974074074	118	2.5842	0.2242	0.531
14.567	0	1	response	263	2	232.085611111111	221.1082	211.829974074074	118	2.5842	0.2242	0.531
14.567	0.5	1	feedback	263	2	232.085611111111	221.1082	211.829974074074	118	2.5842	0.2242	0.531
20	4.004	2	valuation	336	1	180.357381481482	181.934185185185	185.217703703704	20	0.862	0.18	17.232
24.004	0.427999999999997	2	rating	336	1	180.357381481482	181.934185185185	185.217703703704	20	0.862	0.18	17.232
24.432	0	2	response	336	1	180.357381481482	181.934185185185	185.217703703704	20	0.862	0.18	17.232
24.432	0.5	2	feedback	336	1	180.357381481482	181.934185185185	185.217703703704	20	0.862	0.18	17.232
29.453	4.004	3	valuation	446	2	241.791362962963	214.010848148148	202.937925925926	80	0.8	0	2.4
33.457	0.625	3	rating	446	2	241.791362962963	214.010848148148	202.937925925926	80	0.8	0	2.4
34.082	0	3	response	446	2	241.791362962963	214.010848148148	202.937925925926	80	0.8	0	2.4
34.082	0.5	3	feedback	446	2	241.791362962963	214.010848148148	202.937925925926	80	0.8	0	2.4
40.722	4.007	4	valuation	458	2	242.648577777778	229.380874074074	183.049566666667	92	0.414	0.3496	4.7564
44.729	0.521000000000001	4	rating	458	2	242.648577777778	229.380874074074	183.049566666667	92	0.414	0.3496	4.7564
45.25	0	4	response	458	2	242.648577777778	229.380874074074	183.049566666667	92	0.414	0.3496	4.7564
45.25	0.5	4	feedback	458	2	242.648577777778	229.380874074074	183.049566666667	92	0.414	0.3496	4.7564
53.007	4.005	5	valuation	291	3	246.073059259259	241.529374074074	239.66687037037	11	0.44	3.5431	5.885
57.012	0.484999999999999	5	rating	291	3	246.073059259259	241.529374074074	239.66687037037	11	0.44	3.5431	5.885
57.497	0	5	response	291	3	246.073059259259	241.529374074074	239.66687037037	11	0.44	3.5431	5.885
57.497	0.5	5	feedback	291	3	246.073059259259	241.529374074074	239.66687037037	11	0.44	3.5431	5.885
60.555	4.004	6	valuation	199	3	244.756914814815	225.456751851852	215.303337037037	300	0.78	0.27	10.92
64.559	0.403000000000006	6	rating	199	3	244.756914814815	225.456751851852	215.303337037037	300	0.78	0.27	10.92
64.962	0	6	response	199	3	244.756914814815	225.456751851852	215.303337037037	300	0.78	0.27	10.92
64.962	0.5	6	feedback	199	3	244.756914814815	225.456751851852	215.303337037037	300	0.78	0.27	10.92
72.081	4.00699999999999	7	valuation	35	3	238.261518518519	232.753133333333	222.796459259259	70	6.3	33.6	25.9
76.088	0.486000000000004	7	rating	35	3	238.261518518519	232.753133333333	222.796459259259	70	6.3	33.6	25.9
76.574	0	7	response	35	3	238.261518518519	232.753133333333	222.796459259259	70	6.3	33.6	25.9
76.574	0.5	7	feedback	35	3	238.261518518519	232.753133333333	222.796459259259	70	6.3	33.6	25.9
83.956	4.00399999999999	8	valuation	18	4	225.149392592593	212.812444444445	193.682225925926	60	4.002	7.998	25.002
87.96	0.504000000000005	8	rating	18	4	225.149392592593	212.812444444445	193.682225925926	60	4.002	7.998	25.002
88.464	0	8	response	18	4	225.149392592593	212.812444444445	193.682225925926	60	4.002	7.998	25.002
88.464	0.5	8	feedback	18	4	225.149392592593	212.812444444445	193.682225925926	60	4.002	7.998	25.002
96.485	4.003	9	valuation	259	2	218.695496296296	192.047703703704	203.066840740741	1600	18.72	2.24	44.16
100.488	0.549999999999997	9	rating	259	2	218.695496296296	192.047703703704	203.066840740741	1600	18.72	2.24	44.16
101.038	0	9	response	259	2	218.695496296296	192.047703703704	203.066840740741	1600	18.72	2.24	44.16
101.038	0.5	9	feedback	259	2	218.695496296296	192.047703703704	203.066840740741	1600	18.72	2.24	44.16
107.888	4.008	10	valuation	229	3	215.630496296296	207.42947037037	184.50462962963	130	2.249	0.455	4.55
111.896	0.521000000000001	10	rating	229	3	215.630496296296	207.42947037037	184.50462962963	130	2.249	0.455	4.55
112.417	0	10	response	229	3	215.630496296296	207.42947037037	184.50462962963	130	2.249	0.455	4.55
112.417	0.5	10	feedback	229	3	215.630496296296	207.42947037037	184.50462962963	130	2.249	0.455	4.55
120.956	4.00399999999999	11	valuation	267	3	227.865096296296	232.796862962963	224.333814814815	220	0.946	0.308	2.86
124.96	0.577000000000012	11	rating	267	3	227.865096296296	232.796862962963	224.333814814815	220	0.946	0.308	2.86
125.537	0	11	response	267	3	227.865096296296	232.796862962963	224.333814814815	220	0.946	0.308	2.86
125.537	0.5	11	feedback	267	3	227.865096296296	232.796862962963	224.333814814815	220	0.946	0.308	2.86
129.775	4.00399999999999	12	valuation	351	3	231.964922222222	205.086592592593	182.388911111111	65	4.602	21.8205	29.159
133.779	0.542000000000002	12	rating	351	3	231.964922222222	205.086592592593	182.388911111111	65	4.602	21.8205	29.159
134.321	0	12	response	351	3	231.964922222222	205.086592592593	182.388911111111	65	4.602	21.8205	29.159
134.321	0.5	12	feedback	351	3	231.964922222222	205.086592592593	182.388911111111	65	4.602	21.8205	29.159
138.82	4.00400000000002	13	valuation	344	4	213.3786	188.994266666667	172.751907407407	72.4	3.5476	19.06292	38.19824
142.824	0.506999999999977	13	rating	344	4	213.3786	188.994266666667	172.751907407407	72.4	3.5476	19.06292	38.19824
143.331	0	13	response	344	4	213.3786	188.994266666667	172.751907407407	72.4	3.5476	19.06292	38.19824
143.331	0.5	13	feedback	344	4	213.3786	188.994266666667	172.751907407407	72.4	3.5476	19.06292	38.19824
147.33	4.00399999999999	14	valuation	148	4	240.700507407407	220.849611111111	192.7112	35	2.345	10.15	21.7
151.334	0.451999999999998	14	rating	148	4	240.700507407407	220.849611111111	192.7112	35	2.345	10.15	21.7
151.786	0	14	response	148	4	240.700507407407	220.849611111111	192.7112	35	2.345	10.15	21.7
151.786	0.5	14	feedback	148	4	240.700507407407	220.849611111111	192.7112	35	2.345	10.15	21.7
159.951	4.00700000000001	15	valuation	535	3	243.583762962963	217.425462962963	203.9945	100	13.5	16	0.5
163.958	0.418000000000006	15	rating	535	3	243.583762962963	217.425462962963	203.9945	100	13.5	16	0.5
164.376	0	15	response	535	3	243.583762962963	217.425462962963	203.9945	100	13.5	16	0.5
164.376	0.5	15	feedback	535	3	243.583762962963	217.425462962963	203.9945	100	13.5	16	0.5
170.33	4.00799999999998	16	valuation	195	2	242.329581481482	243.653844444444	225.12022962963	11	0.0473	0.0154	0.143
174.338	0.533000000000015	16	rating	195	2	242.329581481482	243.653844444444	225.12022962963	11	0.0473	0.0154	0.143
174.871	0	16	response	195	2	242.329581481482	243.653844444444	225.12022962963	11	0.0473	0.0154	0.143
174.871	0.5	16	feedback	195	2	242.329581481482	243.653844444444	225.12022962963	11	0.0473	0.0154	0.143
181.334	4.005	17	valuation	65	4	222.019862962963	211.215914814815	185.582511111111	350	42	42	49
185.339	0.544000000000011	17	rating	65	4	222.019862962963	211.215914814815	185.582511111111	350	42	42	49
185.883	0	17	response	65	4	222.019862962963	211.215914814815	185.582511111111	350	42	42	49
185.883	0.5	17	feedback	65	4	222.019862962963	211.215914814815	185.582511111111	350	42	42	49
192.22	4.005	18	valuation	436	1	242.090233333333	230.336774074074	170.7118	85	0.85	0.255	5.695
196.225	0.560000000000002	18	rating	436	1	242.090233333333	230.336774074074	170.7118	85	0.85	0.255	5.695
196.785	0	18	response	436	1	242.090233333333	230.336774074074	170.7118	85	0.85	0.255	5.695
196.785	0.5	18	feedback	436	1	242.090233333333	230.336774074074	170.7118	85	0.85	0.255	5.695
199.589	4.00399999999999	19	valuation	349	3	226.262659259259	212.320874074074	201.95217037037	200	8.4	5.6	50.8
203.593	0.525000000000006	19	rating	349	3	226.262659259259	212.320874074074	201.95217037037	200	8.4	5.6	50.8
204.118	0	19	response	349	3	226.262659259259	212.320874074074	201.95217037037	200	8.4	5.6	50.8
204.118	0.5	19	feedback	349	3	226.262659259259	212.320874074074	201.95217037037	200	8.4	5.6	50.8
208.502	4.00399999999999	20	valuation	485	3	221.14522962963	200.916974074074	187.894614814815	550	46.475	56.1	114.785
212.506	0.721000000000004	20	rating	485	3	221.14522962963	200.916974074074	187.894614814815	550	46.475	56.1	114.785
213.227	0	20	response	485	3	221.14522962963	200.916974074074	187.894614814815	550	46.475	56.1	114.785
213.227	0.5	20	feedback	485	3	221.14522962963	200.916974074074	187.894614814815	550	46.475	56.1	114.785
219.031	4.00399999999999	21	valuation	358	3	249.352437037037	240.240362962963	221.415944444444	250	2.5	0	22.5
223.035	0.494	21	rating	358	3	249.352437037037	240.240362962963	221.415944444444	250	2.5	0	22.5
223.529	0	21	response	358	3	249.352437037037	240.240362962963	221.415944444444	250	2.5	0	22.5
223.529	0.5	21	feedback	358	3	249.352437037037	240.240362962963	221.415944444444	250	2.5	0	22.5
227.657	4.00399999999999	22	valuation	405	2	225.487281481482	228.002303703704	203.845462962963	300	6	0.6	3
231.661	0.447000000000003	22	rating	405	2	225.487281481482	228.002303703704	203.845462962963	300	6	0.6	3
232.108	0	22	response	405	2	225.487281481482	228.002303703704	203.845462962963	300	6	0.6	3
232.108	0.5	22	feedback	405	2	225.487281481482	228.002303703704	203.845462962963	300	6	0.6	3
240.519	4.00899999999999	23	valuation	109	2	228.630974074074	211.481348148148	167.359840740741	50	14	23.5	5.5
244.528	0.480999999999995	23	rating	109	2	228.630974074074	211.481348148148	167.359840740741	50	14	23.5	5.5
245.009	0	23	response	109	2	228.630974074074	211.481348148148	167.359840740741	50	14	23.5	5.5
245.009	0.5	23	feedback	109	2	228.630974074074	211.481348148148	167.359840740741	50	14	23.5	5.5
248.877	4.00399999999999	24	valuation	303	2	228.245851851852	221.621888888889	196.561248148148	50	1.23	0.14	1.17
252.881	0.498999999999995	24	rating	303	2	228.245851851852	221.621888888889	196.561248148148	50	1.23	0.14	1.17
253.38	0	24	response	303	2	228.245851851852	221.621888888889	196.561248148148	50	1.23	0.14	1.17
253.38	0.5	24	feedback	303	2	228.245851851852	221.621888888889	196.561248148148	50	1.23	0.14	1.17
260.639	4.00799999999998	25	valuation	41	3	206.442281481481	198.14667037037	185.634414814815	50	3.91	11.5	21
264.647	0.439000000000021	25	rating	41	3	206.442281481481	198.14667037037	185.634414814815	50	3.91	11.5	21
265.086	0	25	response	41	3	206.442281481481	198.14667037037	185.634414814815	50	3.91	11.5	21
265.086	0.5	25	feedback	41	3	206.442281481481	198.14667037037	185.634414814815	50	3.91	11.5	21
267.758	4.005	26	valuation	414	2	232.920707407407	229.204237037037	206.009507407407	80	1.744	0.192	5.6
271.763	0.675000000000011	26	rating	414	2	232.920707407407	229.204237037037	206.009507407407	80	1.744	0.192	5.6
272.438	0	26	response	414	2	232.920707407407	229.204237037037	206.009507407407	80	1.744	0.192	5.6
272.438	0.5	26	feedback	414	2	232.920707407407	229.204237037037	206.009507407407	80	1.744	0.192	5.6
277.723	4.00399999999996	27	valuation	226	2	238.889974074074	236.237140740741	230.784377777778	200	24	5	124
281.727	0.52800000000002	27	rating	226	2	238.889974074074	236.237140740741	230.784377777778	200	24	5	124
282.255	0	27	response	226	2	238.889974074074	236.237140740741	230.784377777778	200	24	5	124
282.255	0.5	27	feedback	226	2	238.889974074074	236.237140740741	230.784377777778	200	24	5	124
290.167	4.00400000000002	28	valuation	218	3	216.072659259259	201.749744444444	192.279251851852	590	5.9	1.18	62.363
294.171	0.494000000000028	28	rating	218	3	216.072659259259	201.749744444444	192.279251851852	590	5.9	1.18	62.363
294.665	0	28	response	218	3	216.072659259259	201.749744444444	192.279251851852	590	5.9	1.18	62.363
294.665	0.5	28	feedback	218	3	216.072659259259	201.749744444444	192.279251851852	590	5.9	1.18	62.363
301.403	4.00799999999998	29	valuation	505	2	228.170044444444	209.178259259259	184.446788888889	39	1.17	3.9	26.91
305.411	0.50200000000001	29	rating	505	2	228.170044444444	209.178259259259	184.446788888889	39	1.17	3.9	26.91
305.913	0	29	response	505	2	228.170044444444	209.178259259259	184.446788888889	39	1.17	3.9	26.91
305.913	0.5	29	feedback	505	2	228.170044444444	209.178259259259	184.446788888889	39	1.17	3.9	26.91
308.86	4.00399999999996	30	valuation	164	2	230.836774074074	221.049474074074	210.533777777778	5.6	0.42	1.232	3.696
312.864	0.52600000000001	30	rating	164	2	230.836774074074	221.049474074074	210.533777777778	5.6	0.42	1.232	3.696
313.39	0	30	response	164	2	230.836774074074	221.049474074074	210.533777777778	5.6	0.42	1.232	3.696
313.39	0.5	30	feedback	164	2	230.836774074074	221.049474074074	210.533777777778	5.6	0.42	1.232	3.696
318.542	4.00300000000004	31	valuation	491	3	246.126614814815	236.71137037037	228.555840740741	350	10.255	28	106.61
322.545	0.47399999999999	31	rating	491	3	246.126614814815	236.71137037037	228.555840740741	350	10.255	28	106.61
323.019	0	31	response	491	3	246.126614814815	236.71137037037	228.555840740741	350	10.255	28	106.61
323.019	0.5	31	feedback	491	3	246.126614814815	236.71137037037	228.555840740741	350	10.255	28	106.61
327.909	4.00400000000002	32	valuation	257	2	214.500348148148	200.739385185185	199.419940740741	300	2.4	0.6	3.9
331.913	0.45799999999997	32	rating	257	2	214.500348148148	200.739385185185	199.419940740741	300	2.4	0.6	3.9
332.371	0	32	response	257	2	214.500348148148	200.739385185185	199.419940740741	300	2.4	0.6	3.9
332.371	0.5	32	feedback	257	2	214.500348148148	200.739385185185	199.419940740741	300	2.4	0.6	3.9
339.349	4.00299999999999	33	valuation	212	2	226.158066666667	214.341974074074	196.840062962963	1000	15.4	21.5	30.4
343.352	0.588999999999999	33	rating	212	2	226.158066666667	214.341974074074	196.840062962963	1000	15.4	21.5	30.4
343.941	0	33	response	212	2	226.158066666667	214.341974074074	196.840062962963	1000	15.4	21.5	30.4
343.941	0.5	33	feedback	212	2	226.158066666667	214.341974074074	196.840062962963	1000	15.4	21.5	30.4
347.418	4.00400000000002	34	valuation	181	2	229.859518518518	218.530111111111	203.711755555556	250	22.5	15.1	149
351.422	0.671999999999969	34	rating	181	2	229.859518518518	218.530111111111	203.711755555556	250	22.5	15.1	149
352.094	0	34	response	181	2	229.859518518518	218.530111111111	203.711755555556	250	22.5	15.1	149
352.094	0.5	34	feedback	181	2	229.859518518518	218.530111111111	203.711755555556	250	22.5	15.1	149
355.416	4.00400000000002	35	valuation	330	3	238.498125925926	234.545148148148	229.275044444444	200	6	2	6
359.42	0.676999999999964	35	rating	330	3	238.498125925926	234.545148148148	229.275044444444	200	6	2	6
360.097	0	35	response	330	3	238.498125925926	234.545148148148	229.275044444444	200	6	2	6
360.097	0.5	35	feedback	330	3	238.498125925926	234.545148148148	229.275044444444	200	6	2	6
363.696	4.00399999999996	36	valuation	249	2	227.740374074074	228.878825925926	212.286907407407	1900	28.88	3.23	27.55
367.7	0.55400000000003	36	rating	249	2	227.740374074074	228.878825925926	212.286907407407	1900	28.88	3.23	27.55
368.254	0	36	response	249	2	227.740374074074	228.878825925926	212.286907407407	1900	28.88	3.23	27.55
368.254	0.5	36	feedback	249	2	227.740374074074	228.878825925926	212.286907407407	1900	28.88	3.23	27.55
374.321	4.00299999999999	37	valuation	554	4	218.795292592593	200.597207407407	189.157607407407	300	60	24	3
378.324	0.447000000000003	37	rating	554	4	218.795292592593	200.597207407407	189.157607407407	300	60	24	3
378.771	0	37	response	554	4	218.795292592593	200.597207407407	189.157607407407	300	60	24	3
378.771	0.5	37	feedback	554	4	218.795292592593	200.597207407407	189.157607407407	300	60	24	3
383.399	4.00400000000002	38	valuation	25	3	226.291174074074	216.194922222222	212.551062962963	100	2.58	2.68	30.66
387.403	0.45599999999996	38	rating	25	3	226.291174074074	216.194922222222	212.551062962963	100	2.58	2.68	30.66
387.859	0	38	response	25	3	226.291174074074	216.194922222222	212.551062962963	100	2.58	2.68	30.66
387.859	0.5	38	feedback	25	3	226.291174074074	216.194922222222	212.551062962963	100	2.58	2.68	30.66
395.489	4.00400000000002	39	valuation	228	2	209.730603703704	209.7238	190.847296296296	50	1.3	0.2	2
399.493	0.521000000000015	39	rating	228	2	209.730603703704	209.7238	190.847296296296	50	1.3	0.2	2
400.014	0	39	response	228	2	209.730603703704	209.7238	190.847296296296	50	1.3	0.2	2
400.014	0.5	39	feedback	228	2	209.730603703704	209.7238	190.847296296296	50	1.3	0.2	2
405.579	4.00299999999999	40	valuation	15	3	239.67817037037	223.601403703704	203.338314814815	200	12.8	80.8	80
409.582	0.562999999999988	40	rating	15	3	239.67817037037	223.601403703704	203.338314814815	200	12.8	80.8	80
410.145	0	40	response	15	3	239.67817037037	223.601403703704	203.338314814815	200	12.8	80.8	80
410.145	0.5	40	feedback	15	3	239.67817037037	223.601403703704	203.338314814815	200	12.8	80.8	80
417.665	4.00799999999998	41	valuation	509	2	233.156288888889	230.746048148148	210.392462962963	20	0.54	0.06	1.2
421.673	0.569999999999993	41	rating	509	2	233.156288888889	230.746048148148	210.392462962963	20	0.54	0.06	1.2
422.243	0	41	response	509	2	233.156288888889	230.746048148148	210.392462962963	20	0.54	0.06	1.2
422.243	0.5	41	feedback	509	2	233.156288888889	230.746048148148	210.392462962963	20	0.54	0.06	1.2
430.524	4.00400000000002	42	valuation	306	3	234.096081481481	192.577996296296	157.746648148148	230	4.6	15.433	27.83
434.528	0.597999999999956	42	rating	306	3	234.096081481481	192.577996296296	157.746648148148	230	4.6	15.433	27.83
435.126	0	42	response	306	3	234.096081481481	192.577996296296	157.746648148148	230	4.6	15.433	27.83
435.126	0.5	42	feedback	306	3	234.096081481481	192.577996296296	157.746648148148	230	4.6	15.433	27.83
441.322	4.00400000000002	43	valuation	17	4	210.764488888889	185.949807407407	160.755022222222	720	38.448	64.8	146.16
445.326	0.466999999999985	43	rating	17	4	210.764488888889	185.949807407407	160.755022222222	720	38.448	64.8	146.16
445.793	0	43	response	17	4	210.764488888889	185.949807407407	160.755022222222	720	38.448	64.8	146.16
445.793	0.5	43	feedback	17	4	210.764488888889	185.949807407407	160.755022222222	720	38.448	64.8	146.16
448.998	4.00400000000002	44	valuation	415	2	250.976948148148	237.290459259259	168.683474074074	184	0.828	0.6992	9.5128
453.002	0.634000000000015	44	rating	415	2	250.976948148148	237.290459259259	168.683474074074	184	0.828	0.6992	9.5128
453.636	0	44	response	415	2	250.976948148148	237.290459259259	168.683474074074	184	0.828	0.6992	9.5128
453.636	0.5	44	feedback	415	2	250.976948148148	237.290459259259	168.683474074074	184	0.828	0.6992	9.5128
457.371	4.00400000000002	45	valuation	187	3	243.599374074074	219.512066666667	207.100203703704	70	3.64	13.16	25.13
461.375	0.384000000000015	45	rating	187	3	243.599374074074	219.512066666667	207.100203703704	70	3.64	13.16	25.13
461.759	0	45	response	187	3	243.599374074074	219.512066666667	207.100203703704	70	3.64	13.16	25.13
461.759	0.5	45	feedback	187	3	243.599374074074	219.512066666667	207.100203703704	70	3.64	13.16	25.13
467.453	4.00400000000002	46	valuation	203	3	224.25597037037	210.968914814815	202.841022222222	100	1	0.5	6
471.457	0.387	46	rating	203	3	224.25597037037	210.968914814815	202.841022222222	100	1	0.5	6
471.844	0	46	response	203	3	224.25597037037	210.968914814815	202.841022222222	100	1	0.5	6
471.844	0.5	46	feedback	203	3	224.25597037037	210.968914814815	202.841022222222	100	1	0.5	6
476.625	4.00400000000002	47	valuation	490	2	238.84767037037	229.513007407407	193.213766666667	40	1	0.42	5.2
480.629	0.460999999999956	47	rating	490	2	238.84767037037	229.513007407407	193.213766666667	40	1	0.42	5.2
481.09	0	47	response	490	2	238.84767037037	229.513007407407	193.213766666667	40	1	0.42	5.2
481.09	0.5	47	feedback	490	2	238.84767037037	229.513007407407	193.213766666667	40	1	0.42	5.2
