onset	duration	trial_id	trial_type	image_id	rating_value	red	green	blue	gram	protein	fat	carb
10.027	4.005	1	valuation	523	3	231.052318518518	216.852922222222	206.370418518518	160	8	24	64
14.032	0.717000000000001	1	rating	523	3	231.052318518518	216.852922222222	206.370418518518	160	8	24	64
14.749	0	1	response	523	3	231.052318518518	216.852922222222	206.370418518518	160	8	24	64
14.749	0.5	1	feedback	523	3	231.052318518518	216.852922222222	206.370418518518	160	8	24	64
20.82	4.005	2	valuation	324	2	210.538122222222	181.569266666667	166.688944444445	150	32.55	24.15	6.75
24.825	0.661000000000001	2	rating	324	2	210.538122222222	181.569266666667	166.688944444445	150	32.55	24.15	6.75
25.486	0	2	response	324	2	210.538122222222	181.569266666667	166.688944444445	150	32.55	24.15	6.75
25.486	0.5	2	feedback	324	2	210.538122222222	181.569266666667	166.688944444445	150	32.55	24.15	6.75
31.695	4.004	3	valuation	117	2	242.720503703704	225.239085185185	196.600944444444	34	2.006	11.9	16.32
35.699	0.947000000000003	3	rating	117	2	242.720503703704	225.239085185185	196.600944444444	34	2.006	11.9	16.32
36.646	0	3	response	117	2	242.720503703704	225.239085185185	196.600944444444	34	2.006	11.9	16.32
36.646	0.5	3	feedback	117	2	242.720503703704	225.239085185185	196.600944444444	34	2.006	11.9	16.32
42.648	4.004	4	valuation	560	1	247.228659259259	233.032048148148	209.309892592593	60	7.74	9.48	0.42
46.652	0.943999999999996	4	rating	560	1	247.228659259259	233.032048148148	209.309892592593	60	7.74	9.48	0.42
47.596	0	4	response	560	1	247.228659259259	233.032048148148	209.309892592593	60	7.74	9.48	0.42
47.596	0.5	4	feedback	560	1	247.228659259259	233.032048148148	209.309892592593	60	7.74	9.48	0.42
51.572	4.005	5	valuation	452	3	236.400237037037	207.367988888889	195.907403703704	1800	10.8	3.6	149.04
55.577	1.22	5	rating	452	3	236.400237037037	207.367988888889	195.907403703704	1800	10.8	3.6	149.04
56.797	0	5	response	452	3	236.400237037037	207.367988888889	195.907403703704	1800	10.8	3.6	149.04
56.797	0.5	5	feedback	452	3	236.400237037037	207.367988888889	195.907403703704	1800	10.8	3.6	149.04
61.428	4.004	6	valuation	506	2	179.659574074074	169.293444444444	160.883525925926	13	0.39	1.3	8.97
65.432	0.932999999999993	6	rating	506	2	179.659574074074	169.293444444444	160.883525925926	13	0.39	1.3	8.97
66.365	0	6	response	506	2	179.659574074074	169.293444444444	160.883525925926	13	0.39	1.3	8.97
66.365	0.5	6	feedback	506	2	179.659574074074	169.293444444444	160.883525925926	13	0.39	1.3	8.97
74.126	4.00399999999999	7	valuation	409	1	219.765203703704	214.266048148148	206.449322222222	250	46.25	30	0
78.13	0.817000000000007	7	rating	409	1	219.765203703704	214.266048148148	206.449322222222	250	46.25	30	0
78.947	0	7	response	409	1	219.765203703704	214.266048148148	206.449322222222	250	46.25	30	0
78.947	0.5	7	feedback	409	1	219.765203703704	214.266048148148	206.449322222222	250	46.25	30	0
83.187	4.004	8	valuation	233	4	229.463418518519	202.517385185185	195.26052962963	650	5.85	1.3	16.055
87.191	0.920000000000002	8	rating	233	4	229.463418518519	202.517385185185	195.26052962963	650	5.85	1.3	16.055
88.111	0	8	response	233	4	229.463418518519	202.517385185185	195.26052962963	650	5.85	1.3	16.055
88.111	0.5	8	feedback	233	4	229.463418518519	202.517385185185	195.26052962963	650	5.85	1.3	16.055
96.526	4.004	9	valuation	440	2	241.811451851852	219.400740740741	193.191566666667	1100	90.2	13.2	536.8
100.53	1.03999999999999	9	rating	440	2	241.811451851852	219.400740740741	193.191566666667	1100	90.2	13.2	536.8
101.57	0	9	response	440	2	241.811451851852	219.400740740741	193.191566666667	1100	90.2	13.2	536.8
101.57	0.5	9	feedback	440	2	241.811451851852	219.400740740741	193.191566666667	1100	90.2	13.2	536.8
108.824	4.006	10	valuation	213	1	240.480959259259	236.283574074074	222.884648148148	28	3.4608	0.2184	6.692
112.83	0.808999999999997	10	rating	213	1	240.480959259259	236.283574074074	222.884648148148	28	3.4608	0.2184	6.692
113.639	0	10	response	213	1	240.480959259259	236.283574074074	222.884648148148	28	3.4608	0.2184	6.692
113.639	0.5	10	feedback	213	1	240.480959259259	236.283574074074	222.884648148148	28	3.4608	0.2184	6.692
118.028	4.00399999999999	11	valuation	505	2	228.170044444444	209.178259259259	184.446788888889	39	1.17	3.9	26.91
122.032	1.21900000000001	11	rating	505	2	228.170044444444	209.178259259259	184.446788888889	39	1.17	3.9	26.91
123.251	0	11	response	505	2	228.170044444444	209.178259259259	184.446788888889	39	1.17	3.9	26.91
123.251	0.5	11	feedback	505	2	228.170044444444	209.178259259259	184.446788888889	39	1.17	3.9	26.91
128.924	4.005	12	valuation	262	1	227.524707407407	234.760318518519	213.207437037037	300	2.28	0.39	4.11
132.929	1.13399999999999	12	rating	262	1	227.524707407407	234.760318518519	213.207437037037	300	2.28	0.39	4.11
134.063	0	12	response	262	1	227.524707407407	234.760318518519	213.207437037037	300	2.28	0.39	4.11
134.063	0.5	12	feedback	262	1	227.524707407407	234.760318518519	213.207437037037	300	2.28	0.39	4.11
140.389	4.00699999999998	13	valuation	436	2	242.090233333333	230.336774074074	170.7118	85	0.85	0.255	5.695
144.396	1.62700000000001	13	rating	436	2	242.090233333333	230.336774074074	170.7118	85	0.85	0.255	5.695
146.023	0	13	response	436	2	242.090233333333	230.336774074074	170.7118	85	0.85	0.255	5.695
146.023	0.5	13	feedback	436	2	242.090233333333	230.336774074074	170.7118	85	0.85	0.255	5.695
152.612	4.005	14	valuation	176	1	235.462822222222	218.954396296296	216.680240740741	250	42.5	80.325	0.55
156.617	0.913000000000011	14	rating	176	1	235.462822222222	218.954396296296	216.680240740741	250	42.5	80.325	0.55
157.53	0	14	response	176	1	235.462822222222	218.954396296296	216.680240740741	250	42.5	80.325	0.55
157.53	0.5	14	feedback	176	1	235.462822222222	218.954396296296	216.680240740741	250	42.5	80.325	0.55
164.398	4.00399999999999	15	valuation	393	3	245.846081481481	235.4353	181.740533333333	2000	20	1.8	254
168.402	1.55800000000002	15	rating	393	3	245.846081481481	235.4353	181.740533333333	2000	20	1.8	254
169.96	0	15	response	393	3	245.846081481481	235.4353	181.740533333333	2000	20	1.8	254
169.96	0.5	15	feedback	393	3	245.846081481481	235.4353	181.740533333333	2000	20	1.8	254
172.511	4.00399999999999	16	valuation	282	2	248.5747	242.486874074074	227.301066666667	200	2	0.24	28.6
176.515	0.771000000000015	16	rating	282	2	248.5747	242.486874074074	227.301066666667	200	2	0.24	28.6
177.286	0	16	response	282	2	248.5747	242.486874074074	227.301066666667	200	2	0.24	28.6
177.286	0.5	16	feedback	282	2	248.5747	242.486874074074	227.301066666667	200	2	0.24	28.6
185.199	4.00399999999999	17	valuation	332	4	219.616477777778	209.735259259259	178.231551851852	230	2.668	0.322	4.002
189.203	2.00399999999999	17	rating	332	4	219.616477777778	209.735259259259	178.231551851852	230	2.668	0.322	4.002
191.207	0	17	response	332	4	219.616477777778	209.735259259259	178.231551851852	230	2.668	0.322	4.002
191.207	0.5	17	feedback	332	4	219.616477777778	209.735259259259	178.231551851852	230	2.668	0.322	4.002
194.807	4.00500000000002	18	valuation	549	2	248.646144444444	208.924014814815	169.531925925926	80	6.16	1.36	40.48
198.812	1.31299999999999	18	rating	549	2	248.646144444444	208.924014814815	169.531925925926	80	6.16	1.36	40.48
200.125	0	18	response	549	2	248.646144444444	208.924014814815	169.531925925926	80	6.16	1.36	40.48
200.125	0.5	18	feedback	549	2	248.646144444444	208.924014814815	169.531925925926	80	6.16	1.36	40.48
205.016	4.00300000000001	19	valuation	256	1	244.840307407407	205.061040740741	186.122466666667	500	2	0.5	29.55
209.019	0.832999999999998	19	rating	256	1	244.840307407407	205.061040740741	186.122466666667	500	2	0.5	29.55
209.852	0	19	response	256	1	244.840307407407	205.061040740741	186.122466666667	500	2	0.5	29.55
209.852	0.5	19	feedback	256	1	244.840307407407	205.061040740741	186.122466666667	500	2	0.5	29.55
216.568	4.00799999999998	20	valuation	252	3	234.366414814815	236.86237037037	220.153803703704	300	2.4	0.48	3.78
220.576	0.706000000000017	20	rating	252	3	234.366414814815	236.86237037037	220.153803703704	300	2.4	0.48	3.78
221.282	0	20	response	252	3	234.366414814815	236.86237037037	220.153803703704	300	2.4	0.48	3.78
221.282	0.5	20	feedback	252	3	234.366414814815	236.86237037037	220.153803703704	300	2.4	0.48	3.78
226.587	4.00800000000001	21	valuation	198	1	223.65782962963	215.853659259259	190.91702962963	500	6.1	1.85	24.35
230.595	0.931999999999988	21	rating	198	1	223.65782962963	215.853659259259	190.91702962963	500	6.1	1.85	24.35
231.527	0	21	response	198	1	223.65782962963	215.853659259259	190.91702962963	500	6.1	1.85	24.35
231.527	0.5	21	feedback	198	1	223.65782962963	215.853659259259	190.91702962963	500	6.1	1.85	24.35
234.983	4.005	22	valuation	55	4	210.184577777778	175.108888888889	166.413762962963	1100	34.1	116.6	310.2
238.988	0.961999999999989	22	rating	55	4	210.184577777778	175.108888888889	166.413762962963	1100	34.1	116.6	310.2
239.95	0	22	response	55	4	210.184577777778	175.108888888889	166.413762962963	1100	34.1	116.6	310.2
239.95	0.5	22	feedback	55	4	210.184577777778	175.108888888889	166.413762962963	1100	34.1	116.6	310.2
248.244	4.00999999999999	23	valuation	318	1	237.55152962963	224.783759259259	215.41777037037	197	24.822	35.854	18.124
252.254	0.987000000000023	23	rating	318	1	237.55152962963	224.783759259259	215.41777037037	197	24.822	35.854	18.124
253.241	0	23	response	318	1	237.55152962963	224.783759259259	215.41777037037	197	24.822	35.854	18.124
253.241	0.5	23	feedback	318	1	237.55152962963	224.783759259259	215.41777037037	197	24.822	35.854	18.124
258.672	4.00399999999996	24	valuation	468	2	189.863003703704	179.565566666667	177.450162962963	5	0.06	0.05	0.135
262.676	0.90300000000002	24	rating	468	2	189.863003703704	179.565566666667	177.450162962963	5	0.06	0.05	0.135
263.579	0	24	response	468	2	189.863003703704	179.565566666667	177.450162962963	5	0.06	0.05	0.135
263.579	0.5	24	feedback	468	2	189.863003703704	179.565566666667	177.450162962963	5	0.06	0.05	0.135
268.338	4.00199999999995	25	valuation	377	2	239.679737037037	207.307562962963	170.026059259259	60	4.8	11.82	27.54
272.34	1.59500000000003	25	rating	377	2	239.679737037037	207.307562962963	170.026059259259	60	4.8	11.82	27.54
273.935	0	25	response	377	2	239.679737037037	207.307562962963	170.026059259259	60	4.8	11.82	27.54
273.935	0.5	25	feedback	377	2	239.679737037037	207.307562962963	170.026059259259	60	4.8	11.82	27.54
277.668	4.00400000000002	26	valuation	291	1	246.073059259259	241.529374074074	239.66687037037	11	0.44	3.5431	5.885
281.672	1.25399999999996	26	rating	291	1	246.073059259259	241.529374074074	239.66687037037	11	0.44	3.5431	5.885
282.926	0	26	response	291	1	246.073059259259	241.529374074074	239.66687037037	11	0.44	3.5431	5.885
282.926	0.5	26	feedback	291	1	246.073059259259	241.529374074074	239.66687037037	11	0.44	3.5431	5.885
285.613	4.005	27	valuation	333	3	235.467907407407	238.388866666667	228.73257037037	180	1.62	0.54	15.3
289.618	1.38100000000003	27	rating	333	3	235.467907407407	238.388866666667	228.73257037037	180	1.62	0.54	15.3
290.999	0	27	response	333	3	235.467907407407	238.388866666667	228.73257037037	180	1.62	0.54	15.3
290.999	0.5	27	feedback	333	3	235.467907407407	238.388866666667	228.73257037037	180	1.62	0.54	15.3
299.04	4.00700000000001	28	valuation	461	1	216.267459259259	210.025503703704	199.451151851852	1943	34.3911	4.6632	46.4377
303.047	1.29199999999997	28	rating	461	1	216.267459259259	210.025503703704	199.451151851852	1943	34.3911	4.6632	46.4377
304.339	0	28	response	461	1	216.267459259259	210.025503703704	199.451151851852	1943	34.3911	4.6632	46.4377
304.339	0.5	28	feedback	461	1	216.267459259259	210.025503703704	199.451151851852	1943	34.3911	4.6632	46.4377
309.511	4.00399999999996	29	valuation	456	1	245.849866666667	237.255348148148	220.3531	500	2.5	0	15.6
313.515	0.912000000000035	29	rating	456	1	245.849866666667	237.255348148148	220.3531	500	2.5	0	15.6
314.427	0	29	response	456	1	245.849866666667	237.255348148148	220.3531	500	2.5	0	15.6
314.427	0.5	29	feedback	456	1	245.849866666667	237.255348148148	220.3531	500	2.5	0	15.6
318.947	4.00400000000002	30	valuation	164	4	230.836774074074	221.049474074074	210.533777777778	5.6	0.42	1.232	3.696
322.951	0.731999999999971	30	rating	164	4	230.836774074074	221.049474074074	210.533777777778	5.6	0.42	1.232	3.696
323.683	0	30	response	164	4	230.836774074074	221.049474074074	210.533777777778	5.6	0.42	1.232	3.696
323.683	0.5	30	feedback	164	4	230.836774074074	221.049474074074	210.533777777778	5.6	0.42	1.232	3.696
329.504	4.00299999999999	31	valuation	255	1	245.8923	229.223211111111	226.338888888889	150	0.36	0.315	8.76
333.507	1.94900000000001	31	rating	255	1	245.8923	229.223211111111	226.338888888889	150	0.36	0.315	8.76
335.456	0	31	response	255	1	245.8923	229.223211111111	226.338888888889	150	0.36	0.315	8.76
335.456	0.5	31	feedback	255	1	245.8923	229.223211111111	226.338888888889	150	0.36	0.315	8.76
343.11	4.005	32	valuation	147	1	237.128222222222	225.726059259259	223.239396296296	30	1.38	0.06	23.88
347.115	0.849999999999966	32	rating	147	1	237.128222222222	225.726059259259	223.239396296296	30	1.38	0.06	23.88
347.965	0	32	response	147	1	237.128222222222	225.726059259259	223.239396296296	30	1.38	0.06	23.88
347.965	0.5	32	feedback	147	1	237.128222222222	225.726059259259	223.239396296296	30	1.38	0.06	23.88
355.465	4.00400000000002	33	valuation	196	4	206.006196296296	197.354396296296	175.3604	150	2.595	0.525	5.25
359.469	2.28199999999998	33	rating	196	4	206.006196296296	197.354396296296	175.3604	150	2.595	0.525	5.25
361.751	0	33	response	196	4	206.006196296296	197.354396296296	175.3604	150	2.595	0.525	5.25
361.751	0.5	33	feedback	196	4	206.006196296296	197.354396296296	175.3604	150	2.595	0.525	5.25
368.748	4.00700000000001	34	valuation	447	1	212.686603703704	211.018374074074	167.308322222222	130	4.29	0.546	12.064
372.755	1.17500000000001	34	rating	447	1	212.686603703704	211.018374074074	167.308322222222	130	4.29	0.546	12.064
373.93	0	34	response	447	1	212.686603703704	211.018374074074	167.308322222222	130	4.29	0.546	12.064
373.93	0.5	34	feedback	447	1	212.686603703704	211.018374074074	167.308322222222	130	4.29	0.546	12.064
381.038	4.00399999999996	35	valuation	131	1	219.935996296296	194.952314814815	162.363159259259	550	36.025	31.02	116.985
385.042	1.48600000000005	35	rating	131	1	219.935996296296	194.952314814815	162.363159259259	550	36.025	31.02	116.985
386.528	0	35	response	131	1	219.935996296296	194.952314814815	162.363159259259	550	36.025	31.02	116.985
386.528	0.5	35	feedback	131	1	219.935996296296	194.952314814815	162.363159259259	550	36.025	31.02	116.985
393.905	4.00500000000005	36	valuation	76	2	237.850766666667	229.7443	217.034077777778	350	14.35	8.05	71.75
397.91	0.81899999999996	36	rating	76	2	237.850766666667	229.7443	217.034077777778	350	14.35	8.05	71.75
398.729	0	36	response	76	2	237.850766666667	229.7443	217.034077777778	350	14.35	8.05	71.75
398.729	0.5	36	feedback	76	2	237.850766666667	229.7443	217.034077777778	350	14.35	8.05	71.75
401.681	4.00300000000004	37	valuation	201	2	194.658677777778	195.348214814815	171.040111111111	50	1.3	0.15	1.95
405.684	1.80699999999996	37	rating	201	2	194.658677777778	195.348214814815	171.040111111111	50	1.3	0.15	1.95
407.491	0	37	response	201	2	194.658677777778	195.348214814815	171.040111111111	50	1.3	0.15	1.95
407.491	0.5	37	feedback	201	2	194.658677777778	195.348214814815	171.040111111111	50	1.3	0.15	1.95
412.516	4.00399999999996	38	valuation	259	1	218.695496296296	192.047703703704	203.066840740741	1600	18.72	2.24	44.16
416.52	0.788000000000011	38	rating	259	1	218.695496296296	192.047703703704	203.066840740741	1600	18.72	2.24	44.16
417.308	0	38	response	259	1	218.695496296296	192.047703703704	203.066840740741	1600	18.72	2.24	44.16
417.308	0.5	38	feedback	259	1	218.695496296296	192.047703703704	203.066840740741	1600	18.72	2.24	44.16
421.156	4.00400000000002	39	valuation	483	3	223.797618518518	207.292855555556	198.715448148148	340	19.38	24.82	48.28
425.16	1.45399999999995	39	rating	483	3	223.797618518518	207.292855555556	198.715448148148	340	19.38	24.82	48.28
426.614	0	39	response	483	3	223.797618518518	207.292855555556	198.715448148148	340	19.38	24.82	48.28
426.614	0.5	39	feedback	483	3	223.797618518518	207.292855555556	198.715448148148	340	19.38	24.82	48.28
429.436	4.00800000000004	40	valuation	254	1	231.593918518519	218.161466666667	216.226944444444	120	1.548	0.588	15.324
433.444	1.57900000000001	40	rating	254	1	231.593918518519	218.161466666667	216.226944444444	120	1.548	0.588	15.324
435.023	0	40	response	254	1	231.593918518519	218.161466666667	216.226944444444	120	1.548	0.588	15.324
435.023	0.5	40	feedback	254	1	231.593918518519	218.161466666667	216.226944444444	120	1.548	0.588	15.324
441.478	4.00400000000002	41	valuation	316	3	229.776314814815	226.610340740741	214.930022222222	400	15.6	16.4	44
445.482	1.92899999999997	41	rating	316	3	229.776314814815	226.610340740741	214.930022222222	400	15.6	16.4	44
447.411	0	41	response	316	3	229.776314814815	226.610340740741	214.930022222222	400	15.6	16.4	44
447.411	0.5	41	feedback	316	3	229.776314814815	226.610340740741	214.930022222222	400	15.6	16.4	44
455.965	4.00700000000001	42	valuation	364	2	224.224622222222	230.670088888889	200.154666666667	80	1.36	0.08	3.76
459.972	2.09100000000001	42	rating	364	2	224.224622222222	230.670088888889	200.154666666667	80	1.36	0.08	3.76
462.063	0	42	response	364	2	224.224622222222	230.670088888889	200.154666666667	80	1.36	0.08	3.76
462.063	0.5	42	feedback	364	2	224.224622222222	230.670088888889	200.154666666667	80	1.36	0.08	3.76
470.228	4.01099999999997	43	valuation	376	2	233.765155555555	204.008037037037	174.911155555556	70	3.5	6.3	20.3
474.239	1	43	rating	376	2	233.765155555555	204.008037037037	174.911155555556	70	3.5	6.3	20.3
475.239	0	43	response	376	2	233.765155555555	204.008037037037	174.911155555556	70	3.5	6.3	20.3
475.239	0.5	43	feedback	376	2	233.765155555555	204.008037037037	174.911155555556	70	3.5	6.3	20.3
480.799	4.00600000000003	44	valuation	383	2	228.460337037037	202.349562962963	171.075537037037	45	4.995	3.6	9.18
484.805	1.22399999999999	44	rating	383	2	228.460337037037	202.349562962963	171.075537037037	45	4.995	3.6	9.18
486.029	0	44	response	383	2	228.460337037037	202.349562962963	171.075537037037	45	4.995	3.6	9.18
486.029	0.5	44	feedback	383	2	228.460337037037	202.349562962963	171.075537037037	45	4.995	3.6	9.18
489.107	4.00299999999999	45	valuation	420	1	220.88892962963	161.62427037037	161.309348148148	800	24.8	84.8	225.6
493.11	1.55699999999996	45	rating	420	1	220.88892962963	161.62427037037	161.309348148148	800	24.8	84.8	225.6
494.667	0	45	response	420	1	220.88892962963	161.62427037037	161.309348148148	800	24.8	84.8	225.6
494.667	0.5	45	feedback	420	1	220.88892962963	161.62427037037	161.309348148148	800	24.8	84.8	225.6
497.863	4.00400000000002	46	valuation	330	1	238.498125925926	234.545148148148	229.275044444444	200	6	2	6
501.867	1.47499999999997	46	rating	330	1	238.498125925926	234.545148148148	229.275044444444	200	6	2	6
503.342	0	46	response	330	1	238.498125925926	234.545148148148	229.275044444444	200	6	2	6
503.342	0.5	46	feedback	330	1	238.498125925926	234.545148148148	229.275044444444	200	6	2	6
506.681	4.00400000000002	47	valuation	524	4	248.078725925926	244.485581481481	238.675759259259	163	4.401	14.018	38.305
510.685	1.14299999999997	47	rating	524	4	248.078725925926	244.485581481481	238.675759259259	163	4.401	14.018	38.305
511.828	0	47	response	524	4	248.078725925926	244.485581481481	238.675759259259	163	4.401	14.018	38.305
511.828	0.5	47	feedback	524	4	248.078725925926	244.485581481481	238.675759259259	163	4.401	14.018	38.305
