onset	duration	trial_id	trial_type	image_id	rating_value	red	green	blue	gram	protein	fat	carb
10.025	4.004	1	valuation	540	3	223.916451851852	169.149040740741	168.88347037037	300	60	9	3
14.029	1.048	1	rating	540	3	223.916451851852	169.149040740741	168.88347037037	300	60	9	3
15.077	0	1	response	540	3	223.916451851852	169.149040740741	168.88347037037	300	60	9	3
15.077	0.5	1	feedback	540	3	223.916451851852	169.149040740741	168.88347037037	300	60	9	3
23.097	4.005	2	valuation	481	2	228.953885185185	223.616744444445	209.732762962963	70	4.13	5.159	20.727
27.102	0.722000000000001	2	rating	481	2	228.953885185185	223.616744444445	209.732762962963	70	4.13	5.159	20.727
27.824	0	2	response	481	2	228.953885185185	223.616744444445	209.732762962963	70	4.13	5.159	20.727
27.824	0.5	2	feedback	481	2	228.953885185185	223.616744444445	209.732762962963	70	4.13	5.159	20.727
34.686	4.004	3	valuation	310	2	242.471503703704	215.496444444444	180.650911111111	65	9.1455	2.548	34.099
38.69	0.944000000000003	3	rating	310	2	242.471503703704	215.496444444444	180.650911111111	65	9.1455	2.548	34.099
39.634	0	3	response	310	2	242.471503703704	215.496444444444	180.650911111111	65	9.1455	2.548	34.099
39.634	0.5	3	feedback	310	2	242.471503703704	215.496444444444	180.650911111111	65	9.1455	2.548	34.099
44.629	4.002	4	valuation	67	2	228.945522222222	220.155659259259	202.818633333333	150	4.5	7.5	45
48.631	0.896999999999998	4	rating	67	2	228.945522222222	220.155659259259	202.818633333333	150	4.5	7.5	45
49.528	0	4	response	67	2	228.945522222222	220.155659259259	202.818633333333	150	4.5	7.5	45
49.528	0.5	4	feedback	67	2	228.945522222222	220.155659259259	202.818633333333	150	4.5	7.5	45
54.039	4.006	5	valuation	225	2	227.461903703704	225.681551851852	215.026066666667	28	3.45996	0.2184	6.692
58.045	0.802999999999997	5	rating	225	2	227.461903703704	225.681551851852	215.026066666667	28	3.45996	0.2184	6.692
58.848	0	5	response	225	2	227.461903703704	225.681551851852	215.026066666667	28	3.45996	0.2184	6.692
58.848	0.5	5	feedback	225	2	227.461903703704	225.681551851852	215.026066666667	28	3.45996	0.2184	6.692
65.819	4.02199999999999	6	valuation	245	4	236.351107407407	213.134562962963	179.092744444444	560	4.032	0.784	37.072
69.841	0.716000000000008	6	rating	245	4	236.351107407407	213.134562962963	179.092744444444	560	4.032	0.784	37.072
70.557	0	6	response	245	4	236.351107407407	213.134562962963	179.092744444444	560	4.032	0.784	37.072
70.557	0.5	6	feedback	245	4	236.351107407407	213.134562962963	179.092744444444	560	4.032	0.784	37.072
74.787	4.005	7	valuation	398	4	227.902722222222	216.102292592593	218.140988888889	80	0.72	0.24	10.64
78.792	0.903999999999996	7	rating	398	4	227.902722222222	216.102292592593	218.140988888889	80	0.72	0.24	10.64
79.696	0	7	response	398	4	227.902722222222	216.102292592593	218.140988888889	80	0.72	0.24	10.64
79.696	0.5	7	feedback	398	4	227.902722222222	216.102292592593	218.140988888889	80	0.72	0.24	10.64
84.091	4.004	8	valuation	207	3	236.945751851852	222.32802962963	217.782514814815	50	0.55	0.1	3.6
88.095	0.870999999999995	8	rating	207	3	236.945751851852	222.32802962963	217.782514814815	50	0.55	0.1	3.6
88.966	0	8	response	207	3	236.945751851852	222.32802962963	217.782514814815	50	0.55	0.1	3.6
88.966	0.5	8	feedback	207	3	236.945751851852	222.32802962963	217.782514814815	50	0.55	0.1	3.6
95.573	4.004	9	valuation	474	2	239.237377777778	219.415959259259	196.508911111111	105	5.7015	34.3035	44.8035
99.577	0.900999999999996	9	rating	474	2	239.237377777778	219.415959259259	196.508911111111	105	5.7015	34.3035	44.8035
100.478	0	9	response	474	2	239.237377777778	219.415959259259	196.508911111111	105	5.7015	34.3035	44.8035
100.478	0.5	9	feedback	474	2	239.237377777778	219.415959259259	196.508911111111	105	5.7015	34.3035	44.8035
103.796	4.006	10	valuation	113	3	244.297966666667	235.758511111111	212.079688888889	30	1.8	10.5	14.7
107.802	1.23599999999999	10	rating	113	3	244.297966666667	235.758511111111	212.079688888889	30	1.8	10.5	14.7
109.038	0	10	response	113	3	244.297966666667	235.758511111111	212.079688888889	30	1.8	10.5	14.7
109.038	0.5	10	feedback	113	3	244.297966666667	235.758511111111	212.079688888889	30	1.8	10.5	14.7
117.456	4.00399999999999	11	valuation	396	4	247.924507407407	233.920281481482	212.072951851852	300	1.5	0.9	37.2
121.46	0.926000000000002	11	rating	396	4	247.924507407407	233.920281481482	212.072951851852	300	1.5	0.9	37.2
122.386	0	11	response	396	4	247.924507407407	233.920281481482	212.072951851852	300	1.5	0.9	37.2
122.386	0.5	11	feedback	396	4	247.924507407407	233.920281481482	212.072951851852	300	1.5	0.9	37.2
130.269	4.00999999999999	12	valuation	68	4	222.721862962963	203.222114814815	187.400314814815	350	42.385	17.185	85.085
134.279	0.992999999999995	12	rating	68	4	222.721862962963	203.222114814815	187.400314814815	350	42.385	17.185	85.085
135.272	0	12	response	68	4	222.721862962963	203.222114814815	187.400314814815	350	42.385	17.185	85.085
135.272	0.5	12	feedback	68	4	222.721862962963	203.222114814815	187.400314814815	350	42.385	17.185	85.085
143.552	4.00400000000002	13	valuation	338	1	221.165081481481	207.295811111111	204.795507407407	120	4.32	2.52	89.28
147.556	0.889999999999986	13	rating	338	1	221.165081481481	207.295811111111	204.795507407407	120	4.32	2.52	89.28
148.446	0	13	response	338	1	221.165081481481	207.295811111111	204.795507407407	120	4.32	2.52	89.28
148.446	0.5	13	feedback	338	1	221.165081481481	207.295811111111	204.795507407407	120	4.32	2.52	89.28
156.589	4.00800000000001	14	valuation	262	2	227.524707407407	234.760318518519	213.207437037037	300	2.28	0.39	4.11
160.597	0.858000000000004	14	rating	262	2	227.524707407407	234.760318518519	213.207437037037	300	2.28	0.39	4.11
161.455	0	14	response	262	2	227.524707407407	234.760318518519	213.207437037037	300	2.28	0.39	4.11
161.455	0.5	14	feedback	262	2	227.524707407407	234.760318518519	213.207437037037	300	2.28	0.39	4.11
167.155	4.005	15	valuation	558	2	228.833588888889	226.905788888889	218.695348148148	560	6.72	4.144	11.2
171.16	1.12100000000001	15	rating	558	2	228.833588888889	226.905788888889	218.695348148148	560	6.72	4.144	11.2
172.281	0	15	response	558	2	228.833588888889	226.905788888889	218.695348148148	560	6.72	4.144	11.2
172.281	0.5	15	feedback	558	2	228.833588888889	226.905788888889	218.695348148148	560	6.72	4.144	11.2
179.541	4.00399999999999	16	valuation	453	4	237.348340740741	206.510103703704	179.368751851852	125	0.875	0.125	11.75
183.545	0.979000000000013	16	rating	453	4	237.348340740741	206.510103703704	179.368751851852	125	0.875	0.125	11.75
184.524	0	16	response	453	4	237.348340740741	206.510103703704	179.368751851852	125	0.875	0.125	11.75
184.524	0.5	16	feedback	453	4	237.348340740741	206.510103703704	179.368751851852	125	0.875	0.125	11.75
190.977	4.005	17	valuation	377	2	239.679737037037	207.307562962963	170.026059259259	60	4.8	11.82	27.54
194.982	0.85499999999999	17	rating	377	2	239.679737037037	207.307562962963	170.026059259259	60	4.8	11.82	27.54
195.837	0	17	response	377	2	239.679737037037	207.307562962963	170.026059259259	60	4.8	11.82	27.54
195.837	0.5	17	feedback	377	2	239.679737037037	207.307562962963	170.026059259259	60	4.8	11.82	27.54
201.002	4.005	18	valuation	539	2	233.579448148148	215.357944444444	191.831003703704	80	17.36	40	7.52
205.007	0.722999999999985	18	rating	539	2	233.579448148148	215.357944444444	191.831003703704	80	17.36	40	7.52
205.73	0	18	response	539	2	233.579448148148	215.357944444444	191.831003703704	80	17.36	40	7.52
205.73	0.5	18	feedback	539	2	233.579448148148	215.357944444444	191.831003703704	80	17.36	40	7.52
209.569	4.00300000000001	19	valuation	219	3	236.940559259259	234.579051851852	223.992881481481	300	5.19	1.05	10.5
213.572	0.759999999999991	19	rating	219	3	236.940559259259	234.579051851852	223.992881481481	300	5.19	1.05	10.5
214.332	0	19	response	219	3	236.940559259259	234.579051851852	223.992881481481	300	5.19	1.05	10.5
214.332	0.5	19	feedback	219	3	236.940559259259	234.579051851852	223.992881481481	300	5.19	1.05	10.5
217.517	4.00399999999999	20	valuation	224	4	204.284585185185	186.762425925926	184.890859259259	100	1	0.5	6
221.521	1.33200000000002	20	rating	224	4	204.284585185185	186.762425925926	184.890859259259	100	1	0.5	6
222.853	0	20	response	224	4	204.284585185185	186.762425925926	184.890859259259	100	1	0.5	6
222.853	0.5	20	feedback	224	4	204.284585185185	186.762425925926	184.890859259259	100	1	0.5	6
226.826	4.00400000000002	21	valuation	220	3	232.438803703704	218.037377777778	193.591122222222	900	7.47	1.71	75.24
230.83	1.03	21	rating	220	3	232.438803703704	218.037377777778	193.591122222222	900	7.47	1.71	75.24
231.86	0	21	response	220	3	232.438803703704	218.037377777778	193.591122222222	900	7.47	1.71	75.24
231.86	0.5	21	feedback	220	3	232.438803703704	218.037377777778	193.591122222222	900	7.47	1.71	75.24
235.345	4.006	22	valuation	376	3	233.765155555555	204.008037037037	174.911155555556	70	3.5	6.3	20.3
239.351	1.01900000000001	22	rating	376	3	233.765155555555	204.008037037037	174.911155555556	70	3.5	6.3	20.3
240.37	0	22	response	376	3	233.765155555555	204.008037037037	174.911155555556	70	3.5	6.3	20.3
240.37	0.5	22	feedback	376	3	233.765155555555	204.008037037037	174.911155555556	70	3.5	6.3	20.3
247.765	4.01000000000002	23	valuation	449	1	229.53032962963	224.815233333333	211.779403703704	30	0.315	0.042	0.639
251.775	0.882999999999981	23	rating	449	1	229.53032962963	224.815233333333	211.779403703704	30	0.315	0.042	0.639
252.658	0	23	response	449	1	229.53032962963	224.815233333333	211.779403703704	30	0.315	0.042	0.639
252.658	0.5	23	feedback	449	1	229.53032962963	224.815233333333	211.779403703704	30	0.315	0.042	0.639
255.326	4.00399999999999	24	valuation	414	2	232.920707407407	229.204237037037	206.009507407407	80	1.744	0.192	5.6
259.33	0.90500000000003	24	rating	414	2	232.920707407407	229.204237037037	206.009507407407	80	1.744	0.192	5.6
260.235	0	24	response	414	2	232.920707407407	229.204237037037	206.009507407407	80	1.744	0.192	5.6
260.235	0.5	24	feedback	414	2	232.920707407407	229.204237037037	206.009507407407	80	1.744	0.192	5.6
266.422	4.00299999999999	25	valuation	26	2	240.671822222222	218.454088888889	165.623814814815	34	1.8632	11.9	16.32
270.425	1.69	25	rating	26	2	240.671822222222	218.454088888889	165.623814814815	34	1.8632	11.9	16.32
272.115	0	25	response	26	2	240.671822222222	218.454088888889	165.623814814815	34	1.8632	11.9	16.32
272.115	0.5	25	feedback	26	2	240.671822222222	218.454088888889	165.623814814815	34	1.8632	11.9	16.32
277.942	4.00799999999998	26	valuation	34	4	231.769207407407	217.87617037037	204.482866666667	380	74.784	132.392	13.49
281.95	0.66500000000002	26	rating	34	4	231.769207407407	217.87617037037	204.482866666667	380	74.784	132.392	13.49
282.615	0	26	response	34	4	231.769207407407	217.87617037037	204.482866666667	380	74.784	132.392	13.49
282.615	0.5	26	feedback	34	4	231.769207407407	217.87617037037	204.482866666667	380	74.784	132.392	13.49
288.554	4.01500000000004	27	valuation	415	2	250.976948148148	237.290459259259	168.683474074074	184	0.828	0.6992	9.5128
292.569	1.517	27	rating	415	2	250.976948148148	237.290459259259	168.683474074074	184	0.828	0.6992	9.5128
294.086	0	27	response	415	2	250.976948148148	237.290459259259	168.683474074074	184	0.828	0.6992	9.5128
294.086	0.5	27	feedback	415	2	250.976948148148	237.290459259259	168.683474074074	184	0.828	0.6992	9.5128
300.8	4.00399999999996	28	valuation	175	3	245.393781481482	241.954911111111	226.525148148148	150	25.5	48.75	1.5
304.804	0.812000000000012	28	rating	175	3	245.393781481482	241.954911111111	226.525148148148	150	25.5	48.75	1.5
305.616	0	28	response	175	3	245.393781481482	241.954911111111	226.525148148148	150	25.5	48.75	1.5
305.616	0.5	28	feedback	175	3	245.393781481482	241.954911111111	226.525148148148	150	25.5	48.75	1.5
308.682	4.00399999999996	29	valuation	302	2	247.920840740741	207.924792592593	173.305907407407	180	25.2	15.804	25.38
312.686	0.766999999999996	29	rating	302	2	247.920840740741	207.924792592593	173.305907407407	180	25.2	15.804	25.38
313.453	0	29	response	302	2	247.920840740741	207.924792592593	173.305907407407	180	25.2	15.804	25.38
313.453	0.5	29	feedback	302	2	247.920840740741	207.924792592593	173.305907407407	180	25.2	15.804	25.38
318.899	4.00599999999997	30	valuation	342	1	202.271148148148	204.320740740741	175.546944444444	750	15	0.9	19.5
322.905	0.760000000000048	30	rating	342	1	202.271148148148	204.320740740741	175.546944444444	750	15	0.9	19.5
323.665	0	30	response	342	1	202.271148148148	204.320740740741	175.546944444444	750	15	0.9	19.5
323.665	0.5	30	feedback	342	1	202.271148148148	204.320740740741	175.546944444444	750	15	0.9	19.5
327.785	4.00399999999996	31	valuation	253	1	220.4769	228.2706	204.946774074074	225	1.44	0.405	4.095
331.789	1.03200000000004	31	rating	253	1	220.4769	228.2706	204.946774074074	225	1.44	0.405	4.095
332.821	0	31	response	253	1	220.4769	228.2706	204.946774074074	225	1.44	0.405	4.095
332.821	0.5	31	feedback	253	1	220.4769	228.2706	204.946774074074	225	1.44	0.405	4.095
338.382	4.00400000000002	32	valuation	12	4	216.015559259259	207.838151851852	191.304425925926	205	29.4585	42.23	10.086
342.386	1.31599999999997	32	rating	12	4	216.015559259259	207.838151851852	191.304425925926	205	29.4585	42.23	10.086
343.702	0	32	response	12	4	216.015559259259	207.838151851852	191.304425925926	205	29.4585	42.23	10.086
343.702	0.5	32	feedback	12	4	216.015559259259	207.838151851852	191.304425925926	205	29.4585	42.23	10.086
346.506	4.00400000000002	33	valuation	92	3	242.662940740741	227.70252962963	196.131222222222	600	150	210	0
350.51	0.802999999999997	33	rating	92	3	242.662940740741	227.70252962963	196.131222222222	600	150	210	0
351.313	0	33	response	92	3	242.662940740741	227.70252962963	196.131222222222	600	150	210	0
351.313	0.5	33	feedback	92	3	242.662940740741	227.70252962963	196.131222222222	600	150	210	0
358.82	4.00900000000001	34	valuation	165	2	225.317955555556	214.999707407407	210.162355555556	40	2.24	11	22.92
362.829	0.642999999999972	34	rating	165	2	225.317955555556	214.999707407407	210.162355555556	40	2.24	11	22.92
363.472	0	34	response	165	2	225.317955555556	214.999707407407	210.162355555556	40	2.24	11	22.92
363.472	0.5	34	feedback	165	2	225.317955555556	214.999707407407	210.162355555556	40	2.24	11	22.92
372.03	4.00500000000005	35	valuation	455	2	197.87807037037	210.763881481481	180.331414814815	80	2.016	0.24	0.44
376.035	1.37399999999997	35	rating	455	2	197.87807037037	210.763881481481	180.331414814815	80	2.016	0.24	0.44
377.409	0	35	response	455	2	197.87807037037	210.763881481481	180.331414814815	80	2.016	0.24	0.44
377.409	0.5	35	feedback	455	2	197.87807037037	210.763881481481	180.331414814815	80	2.016	0.24	0.44
382.07	4.00400000000002	36	valuation	294	2	238.324011111111	234.670525925926	224.783814814815	5	0.385	0.9	2.75
386.074	1.14299999999997	36	rating	294	2	238.324011111111	234.670525925926	224.783814814815	5	0.385	0.9	2.75
387.217	0	36	response	294	2	238.324011111111	234.670525925926	224.783814814815	5	0.385	0.9	2.75
387.217	0.5	36	feedback	294	2	238.324011111111	234.670525925926	224.783814814815	5	0.385	0.9	2.75
391.972	4.01100000000002	37	valuation	15	2	239.67817037037	223.601403703704	203.338314814815	200	12.8	80.8	80
395.983	1.12400000000002	37	rating	15	2	239.67817037037	223.601403703704	203.338314814815	200	12.8	80.8	80
397.107	0	37	response	15	2	239.67817037037	223.601403703704	203.338314814815	200	12.8	80.8	80
397.107	0.5	37	feedback	15	2	239.67817037037	223.601403703704	203.338314814815	200	12.8	80.8	80
400.846	4.005	38	valuation	272	1	226.874996296296	232.635744444444	227.7664	30	1.074	0.18	0.48
404.851	1.59899999999999	38	rating	272	1	226.874996296296	232.635744444444	227.7664	30	1.074	0.18	0.48
406.45	0	38	response	272	1	226.874996296296	232.635744444444	227.7664	30	1.074	0.18	0.48
406.45	0.5	38	feedback	272	1	226.874996296296	232.635744444444	227.7664	30	1.074	0.18	0.48
411.487	4.00399999999996	39	valuation	350	3	218.109681481481	183.950977777778	146.384692592593	800	74.4	208.8	102.4
415.491	0.833000000000027	39	rating	350	3	218.109681481481	183.950977777778	146.384692592593	800	74.4	208.8	102.4
416.324	0	39	response	350	3	218.109681481481	183.950977777778	146.384692592593	800	74.4	208.8	102.4
416.324	0.5	39	feedback	350	3	218.109681481481	183.950977777778	146.384692592593	800	74.4	208.8	102.4
419.264	4.00399999999996	40	valuation	296	2	227.07772962963	224.495862962963	211.274185185185	35	1.463	7.308	24.843
423.268	0.78000000000003	40	rating	296	2	227.07772962963	224.495862962963	211.274185185185	35	1.463	7.308	24.843
424.048	0	40	response	296	2	227.07772962963	224.495862962963	211.274185185185	35	1.463	7.308	24.843
424.048	0.5	40	feedback	296	2	227.07772962963	224.495862962963	211.274185185185	35	1.463	7.308	24.843
426.622	4.00299999999999	41	valuation	431	2	230.700055555556	229.526433333333	218.11687037037	550	7.15	1.1	28.6
430.625	0.882000000000005	41	rating	431	2	230.700055555556	229.526433333333	218.11687037037	550	7.15	1.1	28.6
431.507	0	41	response	431	2	230.700055555556	229.526433333333	218.11687037037	550	7.15	1.1	28.6
431.507	0.5	41	feedback	431	2	230.700055555556	229.526433333333	218.11687037037	550	7.15	1.1	28.6
439.26	4.00999999999999	42	valuation	69	4	231.089803703704	215.682885185185	191.383751851852	200	19.56	16.54	58.26
443.27	1.40100000000001	42	rating	69	4	231.089803703704	215.682885185185	191.383751851852	200	19.56	16.54	58.26
444.671	0	42	response	69	4	231.089803703704	215.682885185185	191.383751851852	200	19.56	16.54	58.26
444.671	0.5	42	feedback	69	4	231.089803703704	215.682885185185	191.383751851852	200	19.56	16.54	58.26
449.964	4.00600000000003	43	valuation	345	4	220.265922222222	208.838985185185	194.713825925926	640	4.48	1.92	99.84
453.97	0.940999999999974	43	rating	345	4	220.265922222222	208.838985185185	194.713825925926	640	4.48	1.92	99.84
454.911	0	43	response	345	4	220.265922222222	208.838985185185	194.713825925926	640	4.48	1.92	99.84
454.911	0.5	43	feedback	345	4	220.265922222222	208.838985185185	194.713825925926	640	4.48	1.92	99.84
461.231	4.00299999999999	44	valuation	223	4	226.3765	207.740251851852	201.075733333333	125	1.25	0.625	7.5
465.234	0.972000000000037	44	rating	223	4	226.3765	207.740251851852	201.075733333333	125	1.25	0.625	7.5
466.206	0	44	response	223	4	226.3765	207.740251851852	201.075733333333	125	1.25	0.625	7.5
466.206	0.5	44	feedback	223	4	226.3765	207.740251851852	201.075733333333	125	1.25	0.625	7.5
469.786	4.005	45	valuation	379	4	245.378422222222	237.3909	194.78592962963	594	6.831	1.0692	127.0566
473.791	0.836999999999989	45	rating	379	4	245.378422222222	237.3909	194.78592962963	594	6.831	1.0692	127.0566
474.628	0	45	response	379	4	245.378422222222	237.3909	194.78592962963	594	6.831	1.0692	127.0566
474.628	0.5	45	feedback	379	4	245.378422222222	237.3909	194.78592962963	594	6.831	1.0692	127.0566
482.273	4.00399999999996	46	valuation	287	3	232.806955555556	223.940555555556	218.412614814815	58	2.494	9.918	39.962
486.277	1.077	46	rating	287	3	232.806955555556	223.940555555556	218.412614814815	58	2.494	9.918	39.962
487.354	0	46	response	287	3	232.806955555556	223.940555555556	218.412614814815	58	2.494	9.918	39.962
487.354	0.5	46	feedback	287	3	232.806955555556	223.940555555556	218.412614814815	58	2.494	9.918	39.962
493.408	4.00399999999996	47	valuation	273	2	224.129455555556	230.123711111111	219.557281481482	70	0.7	0.07	0.84
497.412	1.21200000000005	47	rating	273	2	224.129455555556	230.123711111111	219.557281481482	70	0.7	0.07	0.84
498.624	0	47	response	273	2	224.129455555556	230.123711111111	219.557281481482	70	0.7	0.07	0.84
498.624	0.5	47	feedback	273	2	224.129455555556	230.123711111111	219.557281481482	70	0.7	0.07	0.84
