onset	duration	trial_id	trial_type	image_id	rating_value	red	green	blue	gram	protein	fat	carb
10.042	4.005	1	valuation	198	1	223.65782962963	215.853659259259	190.91702962963	500	6.1	1.85	24.35
14.047	0.638999999999999	1	rating	198	1	223.65782962963	215.853659259259	190.91702962963	500	6.1	1.85	24.35
14.686	0	1	response	198	1	223.65782962963	215.853659259259	190.91702962963	500	6.1	1.85	24.35
14.686	0.5	1	feedback	198	1	223.65782962963	215.853659259259	190.91702962963	500	6.1	1.85	24.35
22.08	4.004	2	valuation	248	3	224.806459259259	224.496444444444	225.375659259259	60	0.36	0.36	4.38
26.084	0.591000000000001	2	rating	248	3	224.806459259259	224.496444444444	225.375659259259	60	0.36	0.36	4.38
26.675	0	2	response	248	3	224.806459259259	224.496444444444	225.375659259259	60	0.36	0.36	4.38
26.675	0.5	2	feedback	248	3	224.806459259259	224.496444444444	225.375659259259	60	0.36	0.36	4.38
31.976	4.005	3	valuation	37	4	224.732359259259	204.957048148148	188.700111111111	250	13.475	9.925	46.775
35.981	0.936	3	rating	37	4	224.732359259259	204.957048148148	188.700111111111	250	13.475	9.925	46.775
36.917	0	3	response	37	4	224.732359259259	204.957048148148	188.700111111111	250	13.475	9.925	46.775
36.917	0.5	3	feedback	37	4	224.732359259259	204.957048148148	188.700111111111	250	13.475	9.925	46.775
44.471	4.004	4	valuation	552	3	211.985662962963	193.860933333333	181.95027037037	500	60	37	7.5
48.475	0.604999999999997	4	rating	552	3	211.985662962963	193.860933333333	181.95027037037	500	60	37	7.5
49.08	0	4	response	552	3	211.985662962963	193.860933333333	181.95027037037	500	60	37	7.5
49.08	0.5	4	feedback	552	3	211.985662962963	193.860933333333	181.95027037037	500	60	37	7.5
54.099	4.006	5	valuation	245	3	236.351107407407	213.134562962963	179.092744444444	560	4.032	0.784	37.072
58.105	0.492000000000004	5	rating	245	3	236.351107407407	213.134562962963	179.092744444444	560	4.032	0.784	37.072
58.597	0	5	response	245	3	236.351107407407	213.134562962963	179.092744444444	560	4.032	0.784	37.072
58.597	0.5	5	feedback	245	3	236.351107407407	213.134562962963	179.092744444444	560	4.032	0.784	37.072
64.547	4.012	6	valuation	468	2	189.863003703704	179.565566666667	177.450162962963	5	0.06	0.05	0.135
68.559	0.582000000000008	6	rating	468	2	189.863003703704	179.565566666667	177.450162962963	5	0.06	0.05	0.135
69.141	0	6	response	468	2	189.863003703704	179.565566666667	177.450162962963	5	0.06	0.05	0.135
69.141	0.5	6	feedback	468	2	189.863003703704	179.565566666667	177.450162962963	5	0.06	0.05	0.135
73.639	4.00500000000001	7	valuation	303	2	228.245851851852	221.621888888889	196.561248148148	50	1.23	0.14	1.17
77.644	0.524000000000001	7	rating	303	2	228.245851851852	221.621888888889	196.561248148148	50	1.23	0.14	1.17
78.168	0	7	response	303	2	228.245851851852	221.621888888889	196.561248148148	50	1.23	0.14	1.17
78.168	0.5	7	feedback	303	2	228.245851851852	221.621888888889	196.561248148148	50	1.23	0.14	1.17
83.843	4.00399999999999	8	valuation	535	1	243.583762962963	217.425462962963	203.9945	100	13.5	16	0.5
87.847	0.616	8	rating	535	1	243.583762962963	217.425462962963	203.9945	100	13.5	16	0.5
88.463	0	8	response	535	1	243.583762962963	217.425462962963	203.9945	100	13.5	16	0.5
88.463	0.5	8	feedback	535	1	243.583762962963	217.425462962963	203.9945	100	13.5	16	0.5
95.181	4.004	9	valuation	94	1	243.745288888889	239.157314814815	235.405933333333	100	0.1	0.1	84.4
99.185	0.504999999999995	9	rating	94	1	243.745288888889	239.157314814815	235.405933333333	100	0.1	0.1	84.4
99.69	0	9	response	94	1	243.745288888889	239.157314814815	235.405933333333	100	0.1	0.1	84.4
99.69	0.5	9	feedback	94	1	243.745288888889	239.157314814815	235.405933333333	100	0.1	0.1	84.4
106.547	4.00700000000001	10	valuation	216	2	228.954881481481	203.75372962963	184.151355555556	300	2.49	0.27	34.23
110.554	0.829999999999998	10	rating	216	2	228.954881481481	203.75372962963	184.151355555556	300	2.49	0.27	34.23
111.384	0	10	response	216	2	228.954881481481	203.75372962963	184.151355555556	300	2.49	0.27	34.23
111.384	0.5	10	feedback	216	2	228.954881481481	203.75372962963	184.151355555556	300	2.49	0.27	34.23
114.481	4.004	11	valuation	375	1	231.285433333333	216.0187	196.0478	74	4.144	22.644	33.152
118.485	0.503	11	rating	375	1	231.285433333333	216.0187	196.0478	74	4.144	22.644	33.152
118.988	0	11	response	375	1	231.285433333333	216.0187	196.0478	74	4.144	22.644	33.152
118.988	0.5	11	feedback	375	1	231.285433333333	216.0187	196.0478	74	4.144	22.644	33.152
127.031	4.00399999999999	12	valuation	264	1	252.642037037037	249.660811111111	245.315977777778	33.3	0.72927	0.06327	0.14985
131.035	1.13200000000001	12	rating	264	1	252.642037037037	249.660811111111	245.315977777778	33.3	0.72927	0.06327	0.14985
132.167	0	12	response	264	1	252.642037037037	249.660811111111	245.315977777778	33.3	0.72927	0.06327	0.14985
132.167	0.5	12	feedback	264	1	252.642037037037	249.660811111111	245.315977777778	33.3	0.72927	0.06327	0.14985
137.335	4.00399999999999	13	valuation	339	1	242.204418518518	216.689951851852	205.899985185185	80	4.8	0	63.2
141.339	0.555000000000007	13	rating	339	1	242.204418518518	216.689951851852	205.899985185185	80	4.8	0	63.2
141.894	0	13	response	339	1	242.204418518518	216.689951851852	205.899985185185	80	4.8	0	63.2
141.894	0.5	13	feedback	339	1	242.204418518518	216.689951851852	205.899985185185	80	4.8	0	63.2
146.524	4.005	14	valuation	164	2	230.836774074074	221.049474074074	210.533777777778	5.6	0.42	1.232	3.696
150.529	0.588999999999999	14	rating	164	2	230.836774074074	221.049474074074	210.533777777778	5.6	0.42	1.232	3.696
151.118	0	14	response	164	2	230.836774074074	221.049474074074	210.533777777778	5.6	0.42	1.232	3.696
151.118	0.5	14	feedback	164	2	230.836774074074	221.049474074074	210.533777777778	5.6	0.42	1.232	3.696
155.245	4.012	15	valuation	100	2	212.79622962963	209.737725925926	209.198748148148	1200	55.2	228	343.2
159.257	0.795999999999992	15	rating	100	2	212.79622962963	209.737725925926	209.198748148148	1200	55.2	228	343.2
160.053	0	15	response	100	2	212.79622962963	209.737725925926	209.198748148148	1200	55.2	228	343.2
160.053	0.5	15	feedback	100	2	212.79622962963	209.737725925926	209.198748148148	1200	55.2	228	343.2
164.324	4.00399999999999	16	valuation	267	2	227.865096296296	232.796862962963	224.333814814815	220	0.946	0.308	2.86
168.328	0.597000000000008	16	rating	267	2	227.865096296296	232.796862962963	224.333814814815	220	0.946	0.308	2.86
168.925	0	16	response	267	2	227.865096296296	232.796862962963	224.333814814815	220	0.946	0.308	2.86
168.925	0.5	16	feedback	267	2	227.865096296296	232.796862962963	224.333814814815	220	0.946	0.308	2.86
177.097	4.00399999999999	17	valuation	319	3	233.153577777778	211.589825925926	200.948622222222	2000	364	344	0
181.101	0.596000000000004	17	rating	319	3	233.153577777778	211.589825925926	200.948622222222	2000	364	344	0
181.697	0	17	response	319	3	233.153577777778	211.589825925926	200.948622222222	2000	364	344	0
181.697	0.5	17	feedback	319	3	233.153577777778	211.589825925926	200.948622222222	2000	364	344	0
188.935	4.00800000000001	18	valuation	358	2	249.352437037037	240.240362962963	221.415944444444	250	2.5	0	22.5
192.943	0.704999999999984	18	rating	358	2	249.352437037037	240.240362962963	221.415944444444	250	2.5	0	22.5
193.648	0	18	response	358	2	249.352437037037	240.240362962963	221.415944444444	250	2.5	0	22.5
193.648	0.5	18	feedback	358	2	249.352437037037	240.240362962963	221.415944444444	250	2.5	0	22.5
200.645	4.00399999999999	19	valuation	246	1	223.636533333333	195.611785185185	185.338881481481	500	6.5	2.5	32
204.649	0.562999999999988	19	rating	246	1	223.636533333333	195.611785185185	185.338881481481	500	6.5	2.5	32
205.212	0	19	response	246	1	223.636533333333	195.611785185185	185.338881481481	500	6.5	2.5	32
205.212	0.5	19	feedback	246	1	223.636533333333	195.611785185185	185.338881481481	500	6.5	2.5	32
213.517	4.00399999999999	20	valuation	51	1	226.266981481481	216.113044444444	199.440296296296	500	32.05	84.25	212.6
217.521	0.494	20	rating	51	1	226.266981481481	216.113044444444	199.440296296296	500	32.05	84.25	212.6
218.015	0	20	response	51	1	226.266981481481	216.113044444444	199.440296296296	500	32.05	84.25	212.6
218.015	0.5	20	feedback	51	1	226.266981481481	216.113044444444	199.440296296296	500	32.05	84.25	212.6
224.35	4.00700000000001	21	valuation	130	1	239.940644444444	234.521937037037	224.427055555556	120	6	21.6	72
228.357	0.472000000000008	21	rating	130	1	239.940644444444	234.521937037037	224.427055555556	120	6	21.6	72
228.829	0	21	response	130	1	239.940644444444	234.521937037037	224.427055555556	120	6	21.6	72
228.829	0.5	21	feedback	130	1	239.940644444444	234.521937037037	224.427055555556	120	6	21.6	72
236.461	4.006	22	valuation	159	1	197.329748148148	181.536988888889	176.506477777778	48	2.64	15.888	21.84
240.467	0.557999999999993	22	rating	159	1	197.329748148148	181.536988888889	176.506477777778	48	2.64	15.888	21.84
241.025	0	22	response	159	1	197.329748148148	181.536988888889	176.506477777778	48	2.64	15.888	21.84
241.025	0.5	22	feedback	159	1	197.329748148148	181.536988888889	176.506477777778	48	2.64	15.888	21.84
246.569	4.006	23	valuation	156	2	241.581185185185	221.234507407407	201.485144444444	50	3.75	3.5	26
250.575	0.52800000000002	23	rating	156	2	241.581185185185	221.234507407407	201.485144444444	50	3.75	3.5	26
251.103	0	23	response	156	2	241.581185185185	221.234507407407	201.485144444444	50	3.75	3.5	26
251.103	0.5	23	feedback	156	2	241.581185185185	221.234507407407	201.485144444444	50	3.75	3.5	26
253.651	4.00399999999996	24	valuation	368	1	245.097592592593	243.841588888889	220.953122222222	700	7.98	1.12	14.42
257.655	1.13400000000001	24	rating	368	1	245.097592592593	243.841588888889	220.953122222222	700	7.98	1.12	14.42
258.789	0	24	response	368	1	245.097592592593	243.841588888889	220.953122222222	700	7.98	1.12	14.42
258.789	0.5	24	feedback	368	1	245.097592592593	243.841588888889	220.953122222222	700	7.98	1.12	14.42
267.209	4.00599999999997	25	valuation	201	3	194.658677777778	195.348214814815	171.040111111111	50	1.3	0.15	1.95
271.215	1.01300000000003	25	rating	201	3	194.658677777778	195.348214814815	171.040111111111	50	1.3	0.15	1.95
272.228	0	25	response	201	3	194.658677777778	195.348214814815	171.040111111111	50	1.3	0.15	1.95
272.228	0.5	25	feedback	201	3	194.658677777778	195.348214814815	171.040111111111	50	1.3	0.15	1.95
280.782	4.00400000000002	26	valuation	307	1	243.524525925926	231.736444444444	217.999248148148	125	25	11.9625	1.625
284.786	0.685000000000002	26	rating	307	1	243.524525925926	231.736444444444	217.999248148148	125	25	11.9625	1.625
285.471	0	26	response	307	1	243.524525925926	231.736444444444	217.999248148148	125	25	11.9625	1.625
285.471	0.5	26	feedback	307	1	243.524525925926	231.736444444444	217.999248148148	125	25	11.9625	1.625
288.296	4.00400000000002	27	valuation	28	1	230.415522222222	220.993285185185	214.040340740741	150	6.03	2.82	45.87
292.3	0.565999999999974	27	rating	28	1	230.415522222222	220.993285185185	214.040340740741	150	6.03	2.82	45.87
292.866	0	27	response	28	1	230.415522222222	220.993285185185	214.040340740741	150	6.03	2.82	45.87
292.866	0.5	27	feedback	28	1	230.415522222222	220.993285185185	214.040340740741	150	6.03	2.82	45.87
296.349	4.00299999999999	28	valuation	219	3	236.940559259259	234.579051851852	223.992881481481	300	5.19	1.05	10.5
300.352	0.518000000000029	28	rating	219	3	236.940559259259	234.579051851852	223.992881481481	300	5.19	1.05	10.5
300.87	0	28	response	219	3	236.940559259259	234.579051851852	223.992881481481	300	5.19	1.05	10.5
300.87	0.5	28	feedback	219	3	236.940559259259	234.579051851852	223.992881481481	300	5.19	1.05	10.5
304.731	4.00400000000002	29	valuation	454	2	219.902148148148	220.933455555556	200.841318518518	450	1.8	0.9	55.8
308.735	0.677999999999997	29	rating	454	2	219.902148148148	220.933455555556	200.841318518518	450	1.8	0.9	55.8
309.413	0	29	response	454	2	219.902148148148	220.933455555556	200.841318518518	450	1.8	0.9	55.8
309.413	0.5	29	feedback	454	2	219.902148148148	220.933455555556	200.841318518518	450	1.8	0.9	55.8
313.4	4.00600000000003	30	valuation	20	1	231.082603703704	212.621714814815	188.195388888889	300	20.01	39.99	125.01
317.406	0.459000000000003	30	rating	20	1	231.082603703704	212.621714814815	188.195388888889	300	20.01	39.99	125.01
317.865	0	30	response	20	1	231.082603703704	212.621714814815	188.195388888889	300	20.01	39.99	125.01
317.865	0.5	30	feedback	20	1	231.082603703704	212.621714814815	188.195388888889	300	20.01	39.99	125.01
325.622	4.005	31	valuation	171	1	225.838885185185	222.008844444444	220.679944444444	19.5	0.585	1.95	13.455
329.627	0.593000000000018	31	rating	171	1	225.838885185185	222.008844444444	220.679944444444	19.5	0.585	1.95	13.455
330.22	0	31	response	171	1	225.838885185185	222.008844444444	220.679944444444	19.5	0.585	1.95	13.455
330.22	0.5	31	feedback	171	1	225.838885185185	222.008844444444	220.679944444444	19.5	0.585	1.95	13.455
338.136	4.00799999999998	32	valuation	40	1	218.030618518519	201.905925925926	186.742474074074	1100	60.94	256.3	428.45
342.144	0.480000000000018	32	rating	40	1	218.030618518519	201.905925925926	186.742474074074	1100	60.94	256.3	428.45
342.624	0	32	response	40	1	218.030618518519	201.905925925926	186.742474074074	1100	60.94	256.3	428.45
342.624	0.5	32	feedback	40	1	218.030618518519	201.905925925926	186.742474074074	1100	60.94	256.3	428.45
347.401	4.00399999999996	33	valuation	256	2	244.840307407407	205.061040740741	186.122466666667	500	2	0.5	29.55
351.405	0.795000000000016	33	rating	256	2	244.840307407407	205.061040740741	186.122466666667	500	2	0.5	29.55
352.2	0	33	response	256	2	244.840307407407	205.061040740741	186.122466666667	500	2	0.5	29.55
352.2	0.5	33	feedback	256	2	244.840307407407	205.061040740741	186.122466666667	500	2	0.5	29.55
354.891	4.00700000000001	34	valuation	208	1	243.352581481481	230.928885185185	215.165185185185	520	4.16	0.832	20.488
358.898	1.27699999999999	34	rating	208	1	243.352581481481	230.928885185185	215.165185185185	520	4.16	0.832	20.488
360.175	0	34	response	208	1	243.352581481481	230.928885185185	215.165185185185	520	4.16	0.832	20.488
360.175	0.5	34	feedback	208	1	243.352581481481	230.928885185185	215.165185185185	520	4.16	0.832	20.488
363.765	4.005	35	valuation	389	1	236.718166666667	231.179922222222	208.921581481481	1200	10.8	3.6	100.8
367.77	0.77600000000001	35	rating	389	1	236.718166666667	231.179922222222	208.921581481481	1200	10.8	3.6	100.8
368.546	0	35	response	389	1	236.718166666667	231.179922222222	208.921581481481	1200	10.8	3.6	100.8
368.546	0.5	35	feedback	389	1	236.718166666667	231.179922222222	208.921581481481	1200	10.8	3.6	100.8
373.958	4.00399999999996	36	valuation	273	1	224.129455555556	230.123711111111	219.557281481482	70	0.7	0.07	0.84
377.962	0.658000000000015	36	rating	273	1	224.129455555556	230.123711111111	219.557281481482	70	0.7	0.07	0.84
378.62	0	36	response	273	1	224.129455555556	230.123711111111	219.557281481482	70	0.7	0.07	0.84
378.62	0.5	36	feedback	273	1	224.129455555556	230.123711111111	219.557281481482	70	0.7	0.07	0.84
382.352	4.01600000000002	37	valuation	277	1	231.970492592593	231.910992592593	217.665425925926	130	2.938	0.364	3.432
386.368	0.696000000000026	37	rating	277	1	231.970492592593	231.910992592593	217.665425925926	130	2.938	0.364	3.432
387.064	0	37	response	277	1	231.970492592593	231.910992592593	217.665425925926	130	2.938	0.364	3.432
387.064	0.5	37	feedback	277	1	231.970492592593	231.910992592593	217.665425925926	130	2.938	0.364	3.432
391.441	4.00600000000003	38	valuation	199	2	244.756914814815	225.456751851852	215.303337037037	300	0.78	0.27	10.92
395.447	0.89100000000002	38	rating	199	2	244.756914814815	225.456751851852	215.303337037037	300	0.78	0.27	10.92
396.338	0	38	response	199	2	244.756914814815	225.456751851852	215.303337037037	300	0.78	0.27	10.92
396.338	0.5	38	feedback	199	2	244.756914814815	225.456751851852	215.303337037037	300	0.78	0.27	10.92
402.156	4.01099999999997	39	valuation	178	1	239.681185185185	231.455796296296	222.511874074074	126	8.064	17.514	52.29
406.167	0.662000000000035	39	rating	178	1	239.681185185185	231.455796296296	222.511874074074	126	8.064	17.514	52.29
406.829	0	39	response	178	1	239.681185185185	231.455796296296	222.511874074074	126	8.064	17.514	52.29
406.829	0.5	39	feedback	178	1	239.681185185185	231.455796296296	222.511874074074	126	8.064	17.514	52.29
413.024	4.00400000000002	40	valuation	87	2	223.286288888889	209.11392962963	188.684481481482	236	28.32	28.32	33.04
417.028	0.48399999999998	40	rating	87	2	223.286288888889	209.11392962963	188.684481481482	236	28.32	28.32	33.04
417.512	0	40	response	87	2	223.286288888889	209.11392962963	188.684481481482	236	28.32	28.32	33.04
417.512	0.5	40	feedback	87	2	223.286288888889	209.11392962963	188.684481481482	236	28.32	28.32	33.04
423.595	4.02199999999999	41	valuation	26	2	240.671822222222	218.454088888889	165.623814814815	34	1.8632	11.9	16.32
427.617	0.504999999999995	41	rating	26	2	240.671822222222	218.454088888889	165.623814814815	34	1.8632	11.9	16.32
428.122	0	41	response	26	2	240.671822222222	218.454088888889	165.623814814815	34	1.8632	11.9	16.32
428.122	0.5	41	feedback	26	2	240.671822222222	218.454088888889	165.623814814815	34	1.8632	11.9	16.32
431.326	4.00799999999998	42	valuation	382	2	224.746866666667	217.657692592593	173.595055555556	25	0.16	0.045	0.455
435.334	0.730000000000018	42	rating	382	2	224.746866666667	217.657692592593	173.595055555556	25	0.16	0.045	0.455
436.064	0	42	response	382	2	224.746866666667	217.657692592593	173.595055555556	25	0.16	0.045	0.455
436.064	0.5	42	feedback	382	2	224.746866666667	217.657692592593	173.595055555556	25	0.16	0.045	0.455
440.971	4.012	43	valuation	414	2	232.920707407407	229.204237037037	206.009507407407	80	1.744	0.192	5.6
444.983	0.480999999999995	43	rating	414	2	232.920707407407	229.204237037037	206.009507407407	80	1.744	0.192	5.6
445.464	0	43	response	414	2	232.920707407407	229.204237037037	206.009507407407	80	1.744	0.192	5.6
445.464	0.5	43	feedback	414	2	232.920707407407	229.204237037037	206.009507407407	80	1.744	0.192	5.6
448.411	4.00599999999997	44	valuation	391	3	208.474548148148	200.291181481481	200.220840740741	300	2.1	0.9	46.8
452.417	0.758000000000038	44	rating	391	3	208.474548148148	200.291181481481	200.220840740741	300	2.1	0.9	46.8
453.175	0	44	response	391	3	208.474548148148	200.291181481481	200.220840740741	300	2.1	0.9	46.8
453.175	0.5	44	feedback	391	3	208.474548148148	200.291181481481	200.220840740741	300	2.1	0.9	46.8
460.281	4.00400000000002	45	valuation	364	1	224.224622222222	230.670088888889	200.154666666667	80	1.36	0.08	3.76
464.285	0.546999999999969	45	rating	364	1	224.224622222222	230.670088888889	200.154666666667	80	1.36	0.08	3.76
464.832	0	45	response	364	1	224.224622222222	230.670088888889	200.154666666667	80	1.36	0.08	3.76
464.832	0.5	45	feedback	364	1	224.224622222222	230.670088888889	200.154666666667	80	1.36	0.08	3.76
471.325	4.00299999999999	46	valuation	410	1	234.31097037037	214.737685185185	193.043496296296	300	75.9	144.3	24.9
475.328	0.581000000000017	46	rating	410	1	234.31097037037	214.737685185185	193.043496296296	300	75.9	144.3	24.9
475.909	0	46	response	410	1	234.31097037037	214.737685185185	193.043496296296	300	75.9	144.3	24.9
475.909	0.5	46	feedback	410	1	234.31097037037	214.737685185185	193.043496296296	300	75.9	144.3	24.9
479.237	4.00399999999996	47	valuation	69	2	231.089803703704	215.682885185185	191.383751851852	200	19.56	16.54	58.26
483.241	0.687999999999988	47	rating	69	2	231.089803703704	215.682885185185	191.383751851852	200	19.56	16.54	58.26
483.929	0	47	response	69	2	231.089803703704	215.682885185185	191.383751851852	200	19.56	16.54	58.26
483.929	0.5	47	feedback	69	2	231.089803703704	215.682885185185	191.383751851852	200	19.56	16.54	58.26
