onset	duration	trial_id	trial_type	image_id	rating_value	red	green	blue	gram	protein	fat	carb
10.048	4.004	1	valuation	185	2	238.066225925926	220.562592592593	202.88197037037	300	45.57	79.11	0.84
14.052	0.698	1	rating	185	2	238.066225925926	220.562592592593	202.88197037037	300	45.57	79.11	0.84
14.75	0	1	response	185	2	238.066225925926	220.562592592593	202.88197037037	300	45.57	79.11	0.84
14.75	0.5	1	feedback	185	2	238.066225925926	220.562592592593	202.88197037037	300	45.57	79.11	0.84
22.013	4.005	2	valuation	244	1	243.162111111111	237.490811111111	230.78427037037	66.7	5.1359	2.5346	53.2266
26.018	0.474999999999998	2	rating	244	1	243.162111111111	237.490811111111	230.78427037037	66.7	5.1359	2.5346	53.2266
26.493	0	2	response	244	1	243.162111111111	237.490811111111	230.78427037037	66.7	5.1359	2.5346	53.2266
26.493	0.5	2	feedback	244	1	243.162111111111	237.490811111111	230.78427037037	66.7	5.1359	2.5346	53.2266
32.448	4.006	3	valuation	294	2	238.324011111111	234.670525925926	224.783814814815	5	0.385	0.9	2.75
36.454	1.319	3	rating	294	2	238.324011111111	234.670525925926	224.783814814815	5	0.385	0.9	2.75
37.773	0	3	response	294	2	238.324011111111	234.670525925926	224.783814814815	5	0.385	0.9	2.75
37.773	0.5	3	feedback	294	2	238.324011111111	234.670525925926	224.783814814815	5	0.385	0.9	2.75
44.43	4.003	4	valuation	515	2	246.682818518519	241.276377777778	211.615737037037	200	57.4	60	0
48.433	1.225	4	rating	515	2	246.682818518519	241.276377777778	211.615737037037	200	57.4	60	0
49.658	0	4	response	515	2	246.682818518519	241.276377777778	211.615737037037	200	57.4	60	0
49.658	0.5	4	feedback	515	2	246.682818518519	241.276377777778	211.615737037037	200	57.4	60	0
55.345	4.006	5	valuation	491	3	246.126614814815	236.71137037037	228.555840740741	350	10.255	28	106.61
59.351	1.09	5	rating	491	3	246.126614814815	236.71137037037	228.555840740741	350	10.255	28	106.61
60.441	0	5	response	491	3	246.126614814815	236.71137037037	228.555840740741	350	10.255	28	106.61
60.441	0.5	5	feedback	491	3	246.126614814815	236.71137037037	228.555840740741	350	10.255	28	106.61
68.464	4.004	6	valuation	478	1	242.122040740741	241.192381481481	235.459988888889	900	3.6	1.8	111.6
72.468	0.813000000000002	6	rating	478	1	242.122040740741	241.192381481481	235.459988888889	900	3.6	1.8	111.6
73.281	0	6	response	478	1	242.122040740741	241.192381481481	235.459988888889	900	3.6	1.8	111.6
73.281	0.5	6	feedback	478	1	242.122040740741	241.192381481481	235.459988888889	900	3.6	1.8	111.6
76.867	4.006	7	valuation	86	4	236.011966666667	220.893862962963	200.992777777778	286	30.316	35.8072	50.9938
80.873	0.751999999999995	7	rating	86	4	236.011966666667	220.893862962963	200.992777777778	286	30.316	35.8072	50.9938
81.625	0	7	response	86	4	236.011966666667	220.893862962963	200.992777777778	286	30.316	35.8072	50.9938
81.625	0.5	7	feedback	86	4	236.011966666667	220.893862962963	200.992777777778	286	30.316	35.8072	50.9938
87.06	4.00399999999999	8	valuation	511	1	224.207688888889	218.813522222222	210.636292592593	17	0.765	5.78	9.095
91.064	0.710000000000008	8	rating	511	1	224.207688888889	218.813522222222	210.636292592593	17	0.765	5.78	9.095
91.774	0	8	response	511	1	224.207688888889	218.813522222222	210.636292592593	17	0.765	5.78	9.095
91.774	0.5	8	feedback	511	1	224.207688888889	218.813522222222	210.636292592593	17	0.765	5.78	9.095
100.207	4.004	9	valuation	286	2	225.570633333333	211.376503703704	200.974655555556	100	6.6	29.5	58.5
104.211	1.401	9	rating	286	2	225.570633333333	211.376503703704	200.974655555556	100	6.6	29.5	58.5
105.612	0	9	response	286	2	225.570633333333	211.376503703704	200.974655555556	100	6.6	29.5	58.5
105.612	0.5	9	feedback	286	2	225.570633333333	211.376503703704	200.974655555556	100	6.6	29.5	58.5
113.111	4.006	10	valuation	189	2	211.252040740741	198.967348148148	187.437492592593	90	7.353	13.05	48.447
117.117	0.847999999999999	10	rating	189	2	211.252040740741	198.967348148148	187.437492592593	90	7.353	13.05	48.447
117.965	0	10	response	189	2	211.252040740741	198.967348148148	187.437492592593	90	7.353	13.05	48.447
117.965	0.5	10	feedback	189	2	211.252040740741	198.967348148148	187.437492592593	90	7.353	13.05	48.447
122.867	4.00399999999999	11	valuation	418	3	243.272259259259	237.956851851852	227.336403703704	1000	24.6	2.8	23.4
126.871	1.91799999999999	11	rating	418	3	243.272259259259	237.956851851852	227.336403703704	1000	24.6	2.8	23.4
128.789	0	11	response	418	3	243.272259259259	237.956851851852	227.336403703704	1000	24.6	2.8	23.4
128.789	0.5	11	feedback	418	3	243.272259259259	237.956851851852	227.336403703704	1000	24.6	2.8	23.4
134.866	4.00399999999999	12	valuation	564	2	230.5132	217.013485185185	203.650844444444	75	12.975	0.8025	17.4
138.87	1.51300000000001	12	rating	564	2	230.5132	217.013485185185	203.650844444444	75	12.975	0.8025	17.4
140.383	0	12	response	564	2	230.5132	217.013485185185	203.650844444444	75	12.975	0.8025	17.4
140.383	0.5	12	feedback	564	2	230.5132	217.013485185185	203.650844444444	75	12.975	0.8025	17.4
148.685	4.00299999999999	13	valuation	179	2	210.192144444444	193.826733333333	179.006907407407	450	23.85	99	217.35
152.688	1.41200000000001	13	rating	179	2	210.192144444444	193.826733333333	179.006907407407	450	23.85	99	217.35
154.1	0	13	response	179	2	210.192144444444	193.826733333333	179.006907407407	450	23.85	99	217.35
154.1	0.5	13	feedback	179	2	210.192144444444	193.826733333333	179.006907407407	450	23.85	99	217.35
161.483	6.50800000000001	14	miss	500	0	224.335777777778	210.903914814815	203.253496296296	15	1.035	5.175	7.68
175.255	4.00399999999999	15	valuation	62	2	231.827648148148	219.497414814815	207.432437037037	70	6.195	2.1	36.33
179.259	0.761000000000024	15	rating	62	2	231.827648148148	219.497414814815	207.432437037037	70	6.195	2.1	36.33
180.02	0	15	response	62	2	231.827648148148	219.497414814815	207.432437037037	70	6.195	2.1	36.33
180.02	0.5	15	feedback	62	2	231.827648148148	219.497414814815	207.432437037037	70	6.195	2.1	36.33
187.933	4.00900000000001	16	valuation	396	2	247.924507407407	233.920281481482	212.072951851852	300	1.5	0.9	37.2
191.942	2.14400000000001	16	rating	396	2	247.924507407407	233.920281481482	212.072951851852	300	1.5	0.9	37.2
194.086	0	16	response	396	2	247.924507407407	233.920281481482	212.072951851852	300	1.5	0.9	37.2
194.086	0.5	16	feedback	396	2	247.924507407407	233.920281481482	212.072951851852	300	1.5	0.9	37.2
198.209	4.00399999999999	17	valuation	266	1	236.431551851852	237.5085	229.194196296296	105	0.945	0.315	8.925
202.213	0.920999999999992	17	rating	266	1	236.431551851852	237.5085	229.194196296296	105	0.945	0.315	8.925
203.134	0	17	response	266	1	236.431551851852	237.5085	229.194196296296	105	0.945	0.315	8.925
203.134	0.5	17	feedback	266	1	236.431551851852	237.5085	229.194196296296	105	0.945	0.315	8.925
207.785	4.00399999999999	18	valuation	288	2	243.726974074074	208.497011111111	177.056444444444	80	0.992	0.128	6.008
211.789	0.969999999999999	18	rating	288	2	243.726974074074	208.497011111111	177.056444444444	80	0.992	0.128	6.008
212.759	0	18	response	288	2	243.726974074074	208.497011111111	177.056444444444	80	0.992	0.128	6.008
212.759	0.5	18	feedback	288	2	243.726974074074	208.497011111111	177.056444444444	80	0.992	0.128	6.008
218.974	4.00400000000002	19	valuation	20	3	231.082603703704	212.621714814815	188.195388888889	300	20.01	39.99	125.01
222.978	0.884999999999991	19	rating	20	3	231.082603703704	212.621714814815	188.195388888889	300	20.01	39.99	125.01
223.863	0	19	response	20	3	231.082603703704	212.621714814815	188.195388888889	300	20.01	39.99	125.01
223.863	0.5	19	feedback	20	3	231.082603703704	212.621714814815	188.195388888889	300	20.01	39.99	125.01
226.417	4.005	20	valuation	411	2	211.580766666667	201.367574074074	172.838374074074	380	13.414	1.444	19
230.422	1.34	20	rating	411	2	211.580766666667	201.367574074074	172.838374074074	380	13.414	1.444	19
231.762	0	20	response	411	2	211.580766666667	201.367574074074	172.838374074074	380	13.414	1.444	19
231.762	0.5	20	feedback	411	2	211.580766666667	201.367574074074	172.838374074074	380	13.414	1.444	19
236.542	4.005	21	valuation	2	4	224.223055555555	209.635125925926	185.501751851852	360	54	54	50.4
240.547	1.14699999999999	21	rating	2	4	224.223055555555	209.635125925926	185.501751851852	360	54	54	50.4
241.694	0	21	response	2	4	224.223055555555	209.635125925926	185.501751851852	360	54	54	50.4
241.694	0.5	21	feedback	2	4	224.223055555555	209.635125925926	185.501751851852	360	54	54	50.4
246.859	4.00399999999999	22	valuation	300	2	238.003896296296	224.160344444444	207.635792592593	500	35	16.7	238.5
250.863	1.75	22	rating	300	2	238.003896296296	224.160344444444	207.635792592593	500	35	16.7	238.5
252.613	0	22	response	300	2	238.003896296296	224.160344444444	207.635792592593	500	35	16.7	238.5
252.613	0.5	22	feedback	300	2	238.003896296296	224.160344444444	207.635792592593	500	35	16.7	238.5
255.958	4.00500000000002	23	valuation	23	3	229.752911111111	215.786466666667	200.357874074074	200	29.34	40.52	12.56
259.963	1.63899999999995	23	rating	23	3	229.752911111111	215.786466666667	200.357874074074	200	29.34	40.52	12.56
261.602	0	23	response	23	3	229.752911111111	215.786466666667	200.357874074074	200	29.34	40.52	12.56
261.602	0.5	23	feedback	23	3	229.752911111111	215.786466666667	200.357874074074	200	29.34	40.52	12.56
266.642	4.00400000000002	24	valuation	405	2	225.487281481482	228.002303703704	203.845462962963	300	6	0.6	3
270.646	1.09299999999996	24	rating	405	2	225.487281481482	228.002303703704	203.845462962963	300	6	0.6	3
271.739	0	24	response	405	2	225.487281481482	228.002303703704	203.845462962963	300	6	0.6	3
271.739	0.5	24	feedback	405	2	225.487281481482	228.002303703704	203.845462962963	300	6	0.6	3
274.825	4.00400000000002	25	valuation	41	2	206.442281481481	198.14667037037	185.634414814815	50	3.91	11.5	21
278.829	0.815999999999974	25	rating	41	2	206.442281481481	198.14667037037	185.634414814815	50	3.91	11.5	21
279.645	0	25	response	41	2	206.442281481481	198.14667037037	185.634414814815	50	3.91	11.5	21
279.645	0.5	25	feedback	41	2	206.442281481481	198.14667037037	185.634414814815	50	3.91	11.5	21
283.112	6.50700000000001	26	miss	199	0	244.756914814815	225.456751851852	215.303337037037	300	0.78	0.27	10.92
293.102	6.50400000000002	27	miss	92	0	242.662940740741	227.70252962963	196.131222222222	600	150	210	0
302.047	4.005	28	valuation	378	2	245.6192	237.550818518518	222.0697	500	55.5	40	102
306.052	1.286	28	rating	378	2	245.6192	237.550818518518	222.0697	500	55.5	40	102
307.338	0	28	response	378	2	245.6192	237.550818518518	222.0697	500	55.5	40	102
307.338	0.5	28	feedback	378	2	245.6192	237.550818518518	222.0697	500	55.5	40	102
311.076	4.00399999999996	29	valuation	168	1	234.105851851852	222.37312962963	215.18542962963	34	2.176	9.894	20.57
315.08	2.01600000000002	29	rating	168	1	234.105851851852	222.37312962963	215.18542962963	34	2.176	9.894	20.57
317.096	0	29	response	168	1	234.105851851852	222.37312962963	215.18542962963	34	2.176	9.894	20.57
317.096	0.5	29	feedback	168	1	234.105851851852	222.37312962963	215.18542962963	34	2.176	9.894	20.57
324.744	4.00699999999995	30	valuation	552	2	211.985662962963	193.860933333333	181.95027037037	500	60	37	7.5
328.751	1.51600000000002	30	rating	552	2	211.985662962963	193.860933333333	181.95027037037	500	60	37	7.5
330.267	0	30	response	552	2	211.985662962963	193.860933333333	181.95027037037	500	60	37	7.5
330.267	0.5	30	feedback	552	2	211.985662962963	193.860933333333	181.95027037037	500	60	37	7.5
332.954	4.00299999999999	31	valuation	472	2	231.892751851852	227.653685185185	221.137677777778	160	3.2	3.2	0.96
336.957	1.39400000000001	31	rating	472	2	231.892751851852	227.653685185185	221.137677777778	160	3.2	3.2	0.96
338.351	0	31	response	472	2	231.892751851852	227.653685185185	221.137677777778	160	3.2	3.2	0.96
338.351	0.5	31	feedback	472	2	231.892751851852	227.653685185185	221.137677777778	160	3.2	3.2	0.96
343.634	4.00399999999996	32	valuation	433	2	240.476533333333	216.10922962963	201.709562962963	1200	16.8	2.4	55.2
347.638	1.61400000000003	32	rating	433	2	240.476533333333	216.10922962963	201.709562962963	1200	16.8	2.4	55.2
349.252	0	32	response	433	2	240.476533333333	216.10922962963	201.709562962963	1200	16.8	2.4	55.2
349.252	0.5	32	feedback	433	2	240.476533333333	216.10922962963	201.709562962963	1200	16.8	2.4	55.2
354.808	4.00900000000001	33	valuation	534	3	241.210433333333	235.60722962963	202.995262962963	130	1.04	0.546	16.38
358.817	0.742000000000019	33	rating	534	3	241.210433333333	235.60722962963	202.995262962963	130	1.04	0.546	16.38
359.559	0	33	response	534	3	241.210433333333	235.60722962963	202.995262962963	130	1.04	0.546	16.38
359.559	0.5	33	feedback	534	3	241.210433333333	235.60722962963	202.995262962963	130	1.04	0.546	16.38
365.377	6.50399999999996	34	miss	234	0	220.932896296296	199.742540740741	191.633251851852	30	0.234	0.117	1.599
379.519	4.00599999999997	35	valuation	307	3	243.524525925926	231.736444444444	217.999248148148	125	25	11.9625	1.625
383.525	2.267	35	rating	307	3	243.524525925926	231.736444444444	217.999248148148	125	25	11.9625	1.625
385.792	0	35	response	307	3	243.524525925926	231.736444444444	217.999248148148	125	25	11.9625	1.625
385.792	0.5	35	feedback	307	3	243.524525925926	231.736444444444	217.999248148148	125	25	11.9625	1.625
392.65	4.005	36	valuation	205	2	234.69972962963	229.598588888889	221.566211111111	28	3.4608	0.2184	6.692
396.655	1.23100000000005	36	rating	205	2	234.69972962963	229.598588888889	221.566211111111	28	3.4608	0.2184	6.692
397.886	0	36	response	205	2	234.69972962963	229.598588888889	221.566211111111	28	3.4608	0.2184	6.692
397.886	0.5	36	feedback	205	2	234.69972962963	229.598588888889	221.566211111111	28	3.4608	0.2184	6.692
401.748	4.00400000000002	37	valuation	364	1	224.224622222222	230.670088888889	200.154666666667	80	1.36	0.08	3.76
405.752	0.863	37	rating	364	1	224.224622222222	230.670088888889	200.154666666667	80	1.36	0.08	3.76
406.615	0	37	response	364	1	224.224622222222	230.670088888889	200.154666666667	80	1.36	0.08	3.76
406.615	0.5	37	feedback	364	1	224.224622222222	230.670088888889	200.154666666667	80	1.36	0.08	3.76
413.085	6.505	38	miss	58	0	233.422385185185	221.863414814815	204.117711111111	232	19.0008	11.9944	45.008
423.332	4.00400000000002	39	valuation	310	3	242.471503703704	215.496444444444	180.650911111111	65	9.1455	2.548	34.099
427.336	0.856999999999971	39	rating	310	3	242.471503703704	215.496444444444	180.650911111111	65	9.1455	2.548	34.099
428.193	0	39	response	310	3	242.471503703704	215.496444444444	180.650911111111	65	9.1455	2.548	34.099
428.193	0.5	39	feedback	310	3	242.471503703704	215.496444444444	180.650911111111	65	9.1455	2.548	34.099
431.409	4.00400000000002	40	valuation	119	2	240.868811111111	223.05452962963	202.6496	50	3.615	13.43	17.75
435.413	0.600999999999999	40	rating	119	2	240.868811111111	223.05452962963	202.6496	50	3.615	13.43	17.75
436.014	0	40	response	119	2	240.868811111111	223.05452962963	202.6496	50	3.615	13.43	17.75
436.014	0.5	40	feedback	119	2	240.868811111111	223.05452962963	202.6496	50	3.615	13.43	17.75
444.581	4.005	41	valuation	76	2	237.850766666667	229.7443	217.034077777778	350	14.35	8.05	71.75
448.586	0.973000000000013	41	rating	76	2	237.850766666667	229.7443	217.034077777778	350	14.35	8.05	71.75
449.559	0	41	response	76	2	237.850766666667	229.7443	217.034077777778	350	14.35	8.05	71.75
449.559	0.5	41	feedback	76	2	237.850766666667	229.7443	217.034077777778	350	14.35	8.05	71.75
455.895	4.00400000000002	42	valuation	330	1	238.498125925926	234.545148148148	229.275044444444	200	6	2	6
459.899	2.31200000000001	42	rating	330	1	238.498125925926	234.545148148148	229.275044444444	200	6	2	6
462.211	0	42	response	330	1	238.498125925926	234.545148148148	229.275044444444	200	6	2	6
462.211	0.5	42	feedback	330	1	238.498125925926	234.545148148148	229.275044444444	200	6	2	6
466.593	4.00399999999996	43	valuation	537	1	226.169014814815	197.545233333333	179.910792592593	200	40	6	2
470.597	0.759000000000015	43	rating	537	1	226.169014814815	197.545233333333	179.910792592593	200	40	6	2
471.356	0	43	response	537	1	226.169014814815	197.545233333333	179.910792592593	200	40	6	2
471.356	0.5	43	feedback	537	1	226.169014814815	197.545233333333	179.910792592593	200	40	6	2
478.474	4.00400000000002	44	valuation	414	2	232.920707407407	229.204237037037	206.009507407407	80	1.744	0.192	5.6
482.478	0.680000000000007	44	rating	414	2	232.920707407407	229.204237037037	206.009507407407	80	1.744	0.192	5.6
483.158	0	44	response	414	2	232.920707407407	229.204237037037	206.009507407407	80	1.744	0.192	5.6
483.158	0.5	44	feedback	414	2	232.920707407407	229.204237037037	206.009507407407	80	1.744	0.192	5.6
487.669	6.50300000000004	45	miss	475	0	247.170337037037	225.989062962963	195.605840740741	95	2.85	13.3	28.5
500.398	4.00699999999995	46	valuation	289	2	208.197966666667	194.403118518519	189.596359259259	55	3.025	11.605	37.015
504.405	1.04000000000002	46	rating	289	2	208.197966666667	194.403118518519	189.596359259259	55	3.025	11.605	37.015
505.445	0	46	response	289	2	208.197966666667	194.403118518519	189.596359259259	55	3.025	11.605	37.015
505.445	0.5	46	feedback	289	2	208.197966666667	194.403118518519	189.596359259259	55	3.025	11.605	37.015
512.425	6.505	47	miss	291	0	246.073059259259	241.529374074074	239.66687037037	11	0.44	3.5431	5.885
