onset	duration	trial_id	trial_type	image_id	rating_value	red	green	blue	gram	protein	fat	carb
10.048	4.007	1	valuation	192	2	235.551411111111	214.036388888889	197.404074074074	150	0.465	0.6	17.1
14.055	0.852	1	rating	192	2	235.551411111111	214.036388888889	197.404074074074	150	0.465	0.6	17.1
14.907	0	1	response	192	2	235.551411111111	214.036388888889	197.404074074074	150	0.465	0.6	17.1
14.907	0.5	1	feedback	192	2	235.551411111111	214.036388888889	197.404074074074	150	0.465	0.6	17.1
18	4.004	2	valuation	241	1	243.282040740741	236.463888888889	225.625177777778	300	1.41	0.84	34.59
22.004	1.207	2	rating	241	1	243.282040740741	236.463888888889	225.625177777778	300	1.41	0.84	34.59
23.211	0	2	response	241	1	243.282040740741	236.463888888889	225.625177777778	300	1.41	0.84	34.59
23.211	0.5	2	feedback	241	1	243.282040740741	236.463888888889	225.625177777778	300	1.41	0.84	34.59
31.773	4.005	3	valuation	518	1	243.764974074074	235.473407407407	230.149396296296	250	1.25	0	10
35.778	0.697000000000003	3	rating	518	1	243.764974074074	235.473407407407	230.149396296296	250	1.25	0	10
36.475	0	3	response	518	1	243.764974074074	235.473407407407	230.149396296296	250	1.25	0	10
36.475	0.5	3	feedback	518	1	243.764974074074	235.473407407407	230.149396296296	250	1.25	0	10
41.177	4.004	4	valuation	513	1	197.361259259259	198.7587	189.025185185185	20	0.36	4.85	0.79
45.181	1.02800000000001	4	rating	513	1	197.361259259259	198.7587	189.025185185185	20	0.36	4.85	0.79
46.209	0	4	response	513	1	197.361259259259	198.7587	189.025185185185	20	0.36	4.85	0.79
46.209	0.5	4	feedback	513	1	197.361259259259	198.7587	189.025185185185	20	0.36	4.85	0.79
49.42	4.007	5	valuation	177	3	242.407581481482	227.46987037037	213.553496296296	100	5.5	16.5	71.8
53.427	1.33	5	rating	177	3	242.407581481482	227.46987037037	213.553496296296	100	5.5	16.5	71.8
54.757	0	5	response	177	3	242.407581481482	227.46987037037	213.553496296296	100	5.5	16.5	71.8
54.757	0.5	5	feedback	177	3	242.407581481482	227.46987037037	213.553496296296	100	5.5	16.5	71.8
62.537	4.014	6	valuation	481	2	228.953885185185	223.616744444445	209.732762962963	70	4.13	5.159	20.727
66.551	1.42999999999999	6	rating	481	2	228.953885185185	223.616744444445	209.732762962963	70	4.13	5.159	20.727
67.981	0	6	response	481	2	228.953885185185	223.616744444445	209.732762962963	70	4.13	5.159	20.727
67.981	0.5	6	feedback	481	2	228.953885185185	223.616744444445	209.732762962963	70	4.13	5.159	20.727
75.123	4.005	7	valuation	101	2	234.392659259259	231.396951851852	226.88712962963	50	3.3	16.65	23
79.128	1.277	7	rating	101	2	234.392659259259	231.396951851852	226.88712962963	50	3.3	16.65	23
80.405	0	7	response	101	2	234.392659259259	231.396951851852	226.88712962963	50	3.3	16.65	23
80.405	0.5	7	feedback	101	2	234.392659259259	231.396951851852	226.88712962963	50	3.3	16.65	23
84.925	4.004	8	valuation	15	3	239.67817037037	223.601403703704	203.338314814815	200	12.8	80.8	80
88.929	1.619	8	rating	15	3	239.67817037037	223.601403703704	203.338314814815	200	12.8	80.8	80
90.548	0	8	response	15	3	239.67817037037	223.601403703704	203.338314814815	200	12.8	80.8	80
90.548	0.5	8	feedback	15	3	239.67817037037	223.601403703704	203.338314814815	200	12.8	80.8	80
97.934	4.004	9	valuation	386	2	237.719740740741	229.815822222222	191.553751851852	350	1.295	0.245	6.055
101.938	1.202	9	rating	386	2	237.719740740741	229.815822222222	191.553751851852	350	1.295	0.245	6.055
103.14	0	9	response	386	2	237.719740740741	229.815822222222	191.553751851852	350	1.295	0.245	6.055
103.14	0.5	9	feedback	386	2	237.719740740741	229.815822222222	191.553751851852	350	1.295	0.245	6.055
111.162	4.005	10	valuation	143	4	215.891240740741	195.539033333333	177.243351851852	800	45.6	40.8	104
115.167	0.884	10	rating	143	4	215.891240740741	195.539033333333	177.243351851852	800	45.6	40.8	104
116.051	0	10	response	143	4	215.891240740741	195.539033333333	177.243351851852	800	45.6	40.8	104
116.051	0.5	10	feedback	143	4	215.891240740741	195.539033333333	177.243351851852	800	45.6	40.8	104
119.531	4.009	11	valuation	543	3	227.375385185185	233.356462962963	195.138307407407	500	3.5	1.5	78
123.54	0.842999999999989	11	rating	543	3	227.375385185185	233.356462962963	195.138307407407	500	3.5	1.5	78
124.383	0	11	response	543	3	227.375385185185	233.356462962963	195.138307407407	500	3.5	1.5	78
124.383	0.5	11	feedback	543	3	227.375385185185	233.356462962963	195.138307407407	500	3.5	1.5	78
130.729	6.50399999999999	12	miss	399	0	242.164122222222	236.682811111111	237.330162962963	20	0.18	0.06	2.66
139.665	4.00400000000002	13	valuation	316	3	229.776314814815	226.610340740741	214.930022222222	400	15.6	16.4	44
143.669	0.822000000000003	13	rating	316	3	229.776314814815	226.610340740741	214.930022222222	400	15.6	16.4	44
144.491	0	13	response	316	3	229.776314814815	226.610340740741	214.930022222222	400	15.6	16.4	44
144.491	0.5	13	feedback	316	3	229.776314814815	226.610340740741	214.930022222222	400	15.6	16.4	44
148.09	6.50399999999999	14	miss	524	0	248.078725925926	244.485581481481	238.675759259259	163	4.401	14.018	38.305
159.52	4.00999999999999	15	valuation	424	1	203.596696296296	216.749440740741	193.937025925926	130	7.02	0.26	20.28
163.53	0.835000000000008	15	rating	424	1	203.596696296296	216.749440740741	193.937025925926	130	7.02	0.26	20.28
164.365	0	15	response	424	1	203.596696296296	216.749440740741	193.937025925926	130	7.02	0.26	20.28
164.365	0.5	15	feedback	424	1	203.596696296296	216.749440740741	193.937025925926	130	7.02	0.26	20.28
169.287	4.00399999999999	16	valuation	266	1	236.431551851852	237.5085	229.194196296296	105	0.945	0.315	8.925
173.291	0.817000000000007	16	rating	266	1	236.431551851852	237.5085	229.194196296296	105	0.945	0.315	8.925
174.108	0	16	response	266	1	236.431551851852	237.5085	229.194196296296	105	0.945	0.315	8.925
174.108	0.5	16	feedback	266	1	236.431551851852	237.5085	229.194196296296	105	0.945	0.315	8.925
178.885	4.00400000000002	17	valuation	313	2	243.020677777778	232.450648148148	229.041277777778	92	2.5024	8.9976	35.9996
182.889	1.09999999999999	17	rating	313	2	243.020677777778	232.450648148148	229.041277777778	92	2.5024	8.9976	35.9996
183.989	0	17	response	313	2	243.020677777778	232.450648148148	229.041277777778	92	2.5024	8.9976	35.9996
183.989	0.5	17	feedback	313	2	243.020677777778	232.450648148148	229.041277777778	92	2.5024	8.9976	35.9996
189.943	4.00399999999999	18	valuation	366	4	229.108548148148	207.484762962963	186.527814814815	180	20.484	7.056	90.72
193.947	1.017	18	rating	366	4	229.108548148148	207.484762962963	186.527814814815	180	20.484	7.056	90.72
194.964	0	18	response	366	4	229.108548148148	207.484762962963	186.527814814815	180	20.484	7.056	90.72
194.964	0.5	18	feedback	366	4	229.108548148148	207.484762962963	186.527814814815	180	20.484	7.056	90.72
202.484	4.00399999999999	19	valuation	474	4	239.237377777778	219.415959259259	196.508911111111	105	5.7015	34.3035	44.8035
206.488	2.483	19	rating	474	4	239.237377777778	219.415959259259	196.508911111111	105	5.7015	34.3035	44.8035
208.971	0	19	response	474	4	239.237377777778	219.415959259259	196.508911111111	105	5.7015	34.3035	44.8035
208.971	0.5	19	feedback	474	4	239.237377777778	219.415959259259	196.508911111111	105	5.7015	34.3035	44.8035
212.707	4.00400000000002	20	valuation	333	1	235.467907407407	238.388866666667	228.73257037037	180	1.62	0.54	15.3
216.711	0.837999999999994	20	rating	333	1	235.467907407407	238.388866666667	228.73257037037	180	1.62	0.54	15.3
217.549	0	20	response	333	1	235.467907407407	238.388866666667	228.73257037037	180	1.62	0.54	15.3
217.549	0.5	20	feedback	333	1	235.467907407407	238.388866666667	228.73257037037	180	1.62	0.54	15.3
224.541	4.00399999999999	21	valuation	480	3	235.824840740741	211.983703703704	198.319703703704	570	42.18	7.98	288.42
228.545	0.789000000000016	21	rating	480	3	235.824840740741	211.983703703704	198.319703703704	570	42.18	7.98	288.42
229.334	0	21	response	480	3	235.824840740741	211.983703703704	198.319703703704	570	42.18	7.98	288.42
229.334	0.5	21	feedback	480	3	235.824840740741	211.983703703704	198.319703703704	570	42.18	7.98	288.42
236.99	4.01599999999999	22	valuation	38	4	234.046337037037	225.745488888889	214.159877777778	120	5.316	11.52	26.064
241.006	0.621999999999986	22	rating	38	4	234.046337037037	225.745488888889	214.159877777778	120	5.316	11.52	26.064
241.628	0	22	response	38	4	234.046337037037	225.745488888889	214.159877777778	120	5.316	11.52	26.064
241.628	0.5	22	feedback	38	4	234.046337037037	225.745488888889	214.159877777778	120	5.316	11.52	26.064
246.663	4.00399999999999	23	valuation	304	1	243.904940740741	229.072385185185	192.886733333333	400	8	22.8	44.8
250.667	1.17500000000001	23	rating	304	1	243.904940740741	229.072385185185	192.886733333333	400	8	22.8	44.8
251.842	0	23	response	304	1	243.904940740741	229.072385185185	192.886733333333	400	8	22.8	44.8
251.842	0.5	23	feedback	304	1	243.904940740741	229.072385185185	192.886733333333	400	8	22.8	44.8
258.313	4.00800000000004	24	valuation	54	3	230.317233333333	217.095607407407	192.581888888889	500	143.5	150	0
262.321	0.757999999999981	24	rating	54	3	230.317233333333	217.095607407407	192.581888888889	500	143.5	150	0
263.079	0	24	response	54	3	230.317233333333	217.095607407407	192.581888888889	500	143.5	150	0
263.079	0.5	24	feedback	54	3	230.317233333333	217.095607407407	192.581888888889	500	143.5	150	0
268.641	4.00399999999996	25	valuation	193	3	241.080081481482	230.06032962963	213.878785185185	26	2.9172	1.3676	17.94
272.645	1.02300000000002	25	rating	193	3	241.080081481482	230.06032962963	213.878785185185	26	2.9172	1.3676	17.94
273.668	0	25	response	193	3	241.080081481482	230.06032962963	213.878785185185	26	2.9172	1.3676	17.94
273.668	0.5	25	feedback	193	3	241.080081481482	230.06032962963	213.878785185185	26	2.9172	1.3676	17.94
276.221	4.00400000000002	26	valuation	380	3	216.394555555556	214.203525925926	192.614544444444	30	0.192	0.054	0.546
280.225	1.82299999999998	26	rating	380	3	216.394555555556	214.203525925926	192.614544444444	30	0.192	0.054	0.546
282.048	0	26	response	380	3	216.394555555556	214.203525925926	192.614544444444	30	0.192	0.054	0.546
282.048	0.5	26	feedback	380	3	216.394555555556	214.203525925926	192.614544444444	30	0.192	0.054	0.546
287.867	4.00399999999996	27	valuation	113	1	244.297966666667	235.758511111111	212.079688888889	30	1.8	10.5	14.7
291.871	0.795999999999992	27	rating	113	1	244.297966666667	235.758511111111	212.079688888889	30	1.8	10.5	14.7
292.667	0	27	response	113	1	244.297966666667	235.758511111111	212.079688888889	30	1.8	10.5	14.7
292.667	0.5	27	feedback	113	1	244.297966666667	235.758511111111	212.079688888889	30	1.8	10.5	14.7
298.753	4.00700000000001	28	valuation	478	3	242.122040740741	241.192381481481	235.459988888889	900	3.6	1.8	111.6
302.76	0.66700000000003	28	rating	478	3	242.122040740741	241.192381481481	235.459988888889	900	3.6	1.8	111.6
303.427	0	28	response	478	3	242.122040740741	241.192381481481	235.459988888889	900	3.6	1.8	111.6
303.427	0.5	28	feedback	478	3	242.122040740741	241.192381481481	235.459988888889	900	3.6	1.8	111.6
311.61	4.00399999999996	29	valuation	535	2	243.583762962963	217.425462962963	203.9945	100	13.5	16	0.5
315.614	0.757000000000005	29	rating	535	2	243.583762962963	217.425462962963	203.9945	100	13.5	16	0.5
316.371	0	29	response	535	2	243.583762962963	217.425462962963	203.9945	100	13.5	16	0.5
316.371	0.5	29	feedback	535	2	243.583762962963	217.425462962963	203.9945	100	13.5	16	0.5
321.672	4.00399999999996	30	valuation	130	1	239.940644444444	234.521937037037	224.427055555556	120	6	21.6	72
325.676	0.841999999999985	30	rating	130	1	239.940644444444	234.521937037037	224.427055555556	120	6	21.6	72
326.518	0	30	response	130	1	239.940644444444	234.521937037037	224.427055555556	120	6	21.6	72
326.518	0.5	30	feedback	130	1	239.940644444444	234.521937037037	224.427055555556	120	6	21.6	72
329.337	4.00600000000003	31	valuation	558	1	228.833588888889	226.905788888889	218.695348148148	560	6.72	4.144	11.2
333.343	1.93799999999999	31	rating	558	1	228.833588888889	226.905788888889	218.695348148148	560	6.72	4.144	11.2
335.281	0	31	response	558	1	228.833588888889	226.905788888889	218.695348148148	560	6.72	4.144	11.2
335.281	0.5	31	feedback	558	1	228.833588888889	226.905788888889	218.695348148148	560	6.72	4.144	11.2
339.143	4.00500000000005	32	valuation	554	1	218.795292592593	200.597207407407	189.157607407407	300	60	24	3
343.148	1.30799999999999	32	rating	554	1	218.795292592593	200.597207407407	189.157607407407	300	60	24	3
344.456	0	32	response	554	1	218.795292592593	200.597207407407	189.157607407407	300	60	24	3
344.456	0.5	32	feedback	554	1	218.795292592593	200.597207407407	189.157607407407	300	60	24	3
352.77	4.005	33	valuation	45	4	206.768825925926	193.444144444444	168.1402	250	25.975	24.875	62.525
356.775	0.65100000000001	33	rating	45	4	206.768825925926	193.444144444444	168.1402	250	25.975	24.875	62.525
357.426	0	33	response	45	4	206.768825925926	193.444144444444	168.1402	250	25.975	24.875	62.525
357.426	0.5	33	feedback	45	4	206.768825925926	193.444144444444	168.1402	250	25.975	24.875	62.525
365.837	4.00800000000004	34	valuation	520	1	241.509025925926	241.656559259259	206.112614814815	25	0.25	0.075	1.975
369.845	0.730999999999995	34	rating	520	1	241.509025925926	241.656559259259	206.112614814815	25	0.25	0.075	1.975
370.576	0	34	response	520	1	241.509025925926	241.656559259259	206.112614814815	25	0.25	0.075	1.975
370.576	0.5	34	feedback	520	1	241.509025925926	241.656559259259	206.112614814815	25	0.25	0.075	1.975
374.831	4.00399999999996	35	valuation	165	3	225.317955555556	214.999707407407	210.162355555556	40	2.24	11	22.92
378.835	0.817000000000007	35	rating	165	3	225.317955555556	214.999707407407	210.162355555556	40	2.24	11	22.92
379.652	0	35	response	165	3	225.317955555556	214.999707407407	210.162355555556	40	2.24	11	22.92
379.652	0.5	35	feedback	165	3	225.317955555556	214.999707407407	210.162355555556	40	2.24	11	22.92
386.917	4.00900000000001	36	valuation	362	2	206.639866666667	195.098877777778	175.54102962963	120	2.4	0.24	3.72
390.926	1.57499999999999	36	rating	362	2	206.639866666667	195.098877777778	175.54102962963	120	2.4	0.24	3.72
392.501	0	36	response	362	2	206.639866666667	195.098877777778	175.54102962963	120	2.4	0.24	3.72
392.501	0.5	36	feedback	362	2	206.639866666667	195.098877777778	175.54102962963	120	2.4	0.24	3.72
399.124	4.00299999999999	37	valuation	107	1	211.284196296296	202.555433333333	200.890696296296	120	6.48	18.48	61.8
403.127	0.925000000000011	37	rating	107	1	211.284196296296	202.555433333333	200.890696296296	120	6.48	18.48	61.8
404.052	0	37	response	107	1	211.284196296296	202.555433333333	200.890696296296	120	6.48	18.48	61.8
404.052	0.5	37	feedback	107	1	211.284196296296	202.555433333333	200.890696296296	120	6.48	18.48	61.8
408.174	4.01500000000004	38	valuation	454	2	219.902148148148	220.933455555556	200.841318518518	450	1.8	0.9	55.8
412.189	1.13399999999996	38	rating	454	2	219.902148148148	220.933455555556	200.841318518518	450	1.8	0.9	55.8
413.323	0	38	response	454	2	219.902148148148	220.933455555556	200.841318518518	450	1.8	0.9	55.8
413.323	0.5	38	feedback	454	2	219.902148148148	220.933455555556	200.841318518518	450	1.8	0.9	55.8
419.549	6.51000000000005	39	miss	41	0	206.442281481481	198.14667037037	185.634414814815	50	3.91	11.5	21
432.275	4.00900000000001	40	valuation	86	3	236.011966666667	220.893862962963	200.992777777778	286	30.316	35.8072	50.9938
436.284	0.709000000000003	40	rating	86	3	236.011966666667	220.893862962963	200.992777777778	286	30.316	35.8072	50.9938
436.993	0	40	response	86	3	236.011966666667	220.893862962963	200.992777777778	286	30.316	35.8072	50.9938
436.993	0.5	40	feedback	86	3	236.011966666667	220.893862962963	200.992777777778	286	30.316	35.8072	50.9938
441.38	6.50400000000002	41	miss	552	0	211.985662962963	193.860933333333	181.95027037037	500	60	37	7.5
455.291	4.017	42	valuation	288	1	243.726974074074	208.497011111111	177.056444444444	80	0.992	0.128	6.008
459.308	0.711999999999989	42	rating	288	1	243.726974074074	208.497011111111	177.056444444444	80	0.992	0.128	6.008
460.02	0	42	response	288	1	243.726974074074	208.497011111111	177.056444444444	80	0.992	0.128	6.008
460.02	0.5	42	feedback	288	1	243.726974074074	208.497011111111	177.056444444444	80	0.992	0.128	6.008
465.712	4.005	43	valuation	95	3	225.511714814815	213.138085185185	207.214614814815	800	28	96	274.4
469.717	0.903999999999996	43	rating	95	3	225.511714814815	213.138085185185	207.214614814815	800	28	96	274.4
470.621	0	43	response	95	3	225.511714814815	213.138085185185	207.214614814815	800	28	96	274.4
470.621	0.5	43	feedback	95	3	225.511714814815	213.138085185185	207.214614814815	800	28	96	274.4
473.317	4.00799999999998	44	valuation	351	4	231.964922222222	205.086592592593	182.388911111111	65	4.602	21.8205	29.159
477.325	0.990999999999985	44	rating	351	4	231.964922222222	205.086592592593	182.388911111111	65	4.602	21.8205	29.159
478.316	0	44	response	351	4	231.964922222222	205.086592592593	182.388911111111	65	4.602	21.8205	29.159
478.316	0.5	44	feedback	351	4	231.964922222222	205.086592592593	182.388911111111	65	4.602	21.8205	29.159
481.66	4.00399999999996	45	valuation	34	3	231.769207407407	217.87617037037	204.482866666667	380	74.784	132.392	13.49
485.664	1.05700000000002	45	rating	34	3	231.769207407407	217.87617037037	204.482866666667	380	74.784	132.392	13.49
486.721	0	45	response	34	3	231.769207407407	217.87617037037	204.482866666667	380	74.784	132.392	13.49
486.721	0.5	45	feedback	34	3	231.769207407407	217.87617037037	204.482866666667	380	74.784	132.392	13.49
493.605	4.01499999999999	46	valuation	59	4	212.601351851852	198.902051851852	181.707014814815	1200	34.8	93.6	448.8
497.62	0.692999999999984	46	rating	59	4	212.601351851852	198.902051851852	181.707014814815	1200	34.8	93.6	448.8
498.313	0	46	response	59	4	212.601351851852	198.902051851852	181.707014814815	1200	34.8	93.6	448.8
498.313	0.5	46	feedback	59	4	212.601351851852	198.902051851852	181.707014814815	1200	34.8	93.6	448.8
503.477	4.00400000000002	47	valuation	105	2	231.943188888889	211.231074074074	190.760774074074	50	2.55	5.8	34.1
507.481	1.74799999999999	47	rating	105	2	231.943188888889	211.231074074074	190.760774074074	50	2.55	5.8	34.1
509.229	0	47	response	105	2	231.943188888889	211.231074074074	190.760774074074	50	2.55	5.8	34.1
509.229	0.5	47	feedback	105	2	231.943188888889	211.231074074074	190.760774074074	50	2.55	5.8	34.1
