onset	duration	trial_id	trial_type	image_id	rating_value	red	green	blue	gram	protein	fat	carb
10.026	4.004	1	valuation	92	1	242.662940740741	227.70252962963	196.131222222222	600	150	210	0
14.03	0.550000000000001	1	rating	92	1	242.662940740741	227.70252962963	196.131222222222	600	150	210	0
14.58	0	1	response	92	1	242.662940740741	227.70252962963	196.131222222222	600	150	210	0
14.58	0.5	1	feedback	92	1	242.662940740741	227.70252962963	196.131222222222	600	150	210	0
17.129	4.004	2	valuation	366	2	229.108548148148	207.484762962963	186.527814814815	180	20.484	7.056	90.72
21.133	0.928000000000001	2	rating	366	2	229.108548148148	207.484762962963	186.527814814815	180	20.484	7.056	90.72
22.061	0	2	response	366	2	229.108548148148	207.484762962963	186.527814814815	180	20.484	7.056	90.72
22.061	0.5	2	feedback	366	2	229.108548148148	207.484762962963	186.527814814815	180	20.484	7.056	90.72
26.558	4.005	3	valuation	527	4	239.503748148148	231.566559259259	224.293185185185	180	18	19.8	39.6
30.563	0.585000000000001	3	rating	527	4	239.503748148148	231.566559259259	224.293185185185	180	18	19.8	39.6
31.148	0	3	response	527	4	239.503748148148	231.566559259259	224.293185185185	180	18	19.8	39.6
31.148	0.5	3	feedback	527	4	239.503748148148	231.566559259259	224.293185185185	180	18	19.8	39.6
36.622	4.004	4	valuation	320	1	241.674966666667	228.898551851852	208.403837037037	125	3.5	19	22.25
40.626	1.533	4	rating	320	1	241.674966666667	228.898551851852	208.403837037037	125	3.5	19	22.25
42.159	0	4	response	320	1	241.674966666667	228.898551851852	208.403837037037	125	3.5	19	22.25
42.159	0.5	4	feedback	320	1	241.674966666667	228.898551851852	208.403837037037	125	3.5	19	22.25
47.842	4.004	5	valuation	567	4	227.464122222222	202.702303703704	182.334788888889	120	7.8	6.36	2.4
51.846	0.834000000000003	5	rating	567	4	227.464122222222	202.702303703704	182.334788888889	120	7.8	6.36	2.4
52.68	0	5	response	567	4	227.464122222222	202.702303703704	182.334788888889	120	7.8	6.36	2.4
52.68	0.5	5	feedback	567	4	227.464122222222	202.702303703704	182.334788888889	120	7.8	6.36	2.4
59.92	4.004	6	valuation	340	1	229.827418518519	217.80897037037	208.975240740741	5	0.19	0	4
63.924	0.690000000000005	6	rating	340	1	229.827418518519	217.80897037037	208.975240740741	5	0.19	0	4
64.614	0	6	response	340	1	229.827418518519	217.80897037037	208.975240740741	5	0.19	0	4
64.614	0.5	6	feedback	340	1	229.827418518519	217.80897037037	208.975240740741	5	0.19	0	4
68.349	4.02199999999999	7	valuation	48	3	225.469518518518	207.606522222222	178.779862962963	320	25.088	36.992	119.392
72.371	0.534000000000006	7	rating	48	3	225.469518518518	207.606522222222	178.779862962963	320	25.088	36.992	119.392
72.905	0	7	response	48	3	225.469518518518	207.606522222222	178.779862962963	320	25.088	36.992	119.392
72.905	0.5	7	feedback	48	3	225.469518518518	207.606522222222	178.779862962963	320	25.088	36.992	119.392
80.032	4.004	8	valuation	395	1	207.875462962963	220.707348148148	194.600777777778	1100	23.76	3.19	19.14
84.036	0.516000000000005	8	rating	395	1	207.875462962963	220.707348148148	194.600777777778	1100	23.76	3.19	19.14
84.552	0	8	response	395	1	207.875462962963	220.707348148148	194.600777777778	1100	23.76	3.19	19.14
84.552	0.5	8	feedback	395	1	207.875462962963	220.707348148148	194.600777777778	1100	23.76	3.19	19.14
92.05	4.006	9	valuation	35	1	238.261518518519	232.753133333333	222.796459259259	70	6.3	33.6	25.9
96.056	0.75	9	rating	35	1	238.261518518519	232.753133333333	222.796459259259	70	6.3	33.6	25.9
96.806	0	9	response	35	1	238.261518518519	232.753133333333	222.796459259259	70	6.3	33.6	25.9
96.806	0.5	9	feedback	35	1	238.261518518519	232.753133333333	222.796459259259	70	6.3	33.6	25.9
104.436	4.005	10	valuation	341	3	243.643766666667	235.343803703704	207.559322222222	396	4.554	0.7128	84.7044
108.441	0.700000000000003	10	rating	341	3	243.643766666667	235.343803703704	207.559322222222	396	4.554	0.7128	84.7044
109.141	0	10	response	341	3	243.643766666667	235.343803703704	207.559322222222	396	4.554	0.7128	84.7044
109.141	0.5	10	feedback	341	3	243.643766666667	235.343803703704	207.559322222222	396	4.554	0.7128	84.7044
113.116	4.004	11	valuation	332	2	219.616477777778	209.735259259259	178.231551851852	230	2.668	0.322	4.002
117.12	0.677999999999997	11	rating	332	2	219.616477777778	209.735259259259	178.231551851852	230	2.668	0.322	4.002
117.798	0	11	response	332	2	219.616477777778	209.735259259259	178.231551851852	230	2.668	0.322	4.002
117.798	0.5	11	feedback	332	2	219.616477777778	209.735259259259	178.231551851852	230	2.668	0.322	4.002
125.809	4.00399999999999	12	valuation	310	1	242.471503703704	215.496444444444	180.650911111111	65	9.1455	2.548	34.099
129.813	0.655000000000001	12	rating	310	1	242.471503703704	215.496444444444	180.650911111111	65	9.1455	2.548	34.099
130.468	0	12	response	310	1	242.471503703704	215.496444444444	180.650911111111	65	9.1455	2.548	34.099
130.468	0.5	12	feedback	310	1	242.471503703704	215.496444444444	180.650911111111	65	9.1455	2.548	34.099
133.946	4.006	13	valuation	401	1	249.7563	237.292185185185	234.866381481482	10	0.19	0.04	0.88
137.952	0.687999999999988	13	rating	401	1	249.7563	237.292185185185	234.866381481482	10	0.19	0.04	0.88
138.64	0	13	response	401	1	249.7563	237.292185185185	234.866381481482	10	0.19	0.04	0.88
138.64	0.5	13	feedback	401	1	249.7563	237.292185185185	234.866381481482	10	0.19	0.04	0.88
146.531	4.005	14	valuation	438	1	244.739322222222	223.224444444444	202.146422222222	60	0.78	0.12	2.94
150.536	0.668000000000006	14	rating	438	1	244.739322222222	223.224444444444	202.146422222222	60	0.78	0.12	2.94
151.204	0	14	response	438	1	244.739322222222	223.224444444444	202.146422222222	60	0.78	0.12	2.94
151.204	0.5	14	feedback	438	1	244.739322222222	223.224444444444	202.146422222222	60	0.78	0.12	2.94
158.963	4.00800000000001	15	valuation	384	2	221.59467037037	205.768237037037	170.292388888889	250	32.5	16	120
162.971	0.953000000000003	15	rating	384	2	221.59467037037	205.768237037037	170.292388888889	250	32.5	16	120
163.924	0	15	response	384	2	221.59467037037	205.768237037037	170.292388888889	250	32.5	16	120
163.924	0.5	15	feedback	384	2	221.59467037037	205.768237037037	170.292388888889	250	32.5	16	120
170.377	4.00399999999999	16	valuation	405	1	225.487281481482	228.002303703704	203.845462962963	300	6	0.6	3
174.381	0.985000000000014	16	rating	405	1	225.487281481482	228.002303703704	203.845462962963	300	6	0.6	3
175.366	0	16	response	405	1	225.487281481482	228.002303703704	203.845462962963	300	6	0.6	3
175.366	0.5	16	feedback	405	1	225.487281481482	228.002303703704	203.845462962963	300	6	0.6	3
180.661	4.00399999999999	17	valuation	509	1	233.156288888889	230.746048148148	210.392462962963	20	0.54	0.06	1.2
184.665	0.572000000000003	17	rating	509	1	233.156288888889	230.746048148148	210.392462962963	20	0.54	0.06	1.2
185.237	0	17	response	509	1	233.156288888889	230.746048148148	210.392462962963	20	0.54	0.06	1.2
185.237	0.5	17	feedback	509	1	233.156288888889	230.746048148148	210.392462962963	20	0.54	0.06	1.2
189.492	4.00500000000002	18	valuation	450	1	230.039977777778	202.773103703704	181.145396296296	182	21.7672	112.112	19.1828
193.497	0.731999999999999	18	rating	450	1	230.039977777778	202.773103703704	181.145396296296	182	21.7672	112.112	19.1828
194.229	0	18	response	450	1	230.039977777778	202.773103703704	181.145396296296	182	21.7672	112.112	19.1828
194.229	0.5	18	feedback	450	1	230.039977777778	202.773103703704	181.145396296296	182	21.7672	112.112	19.1828
200.037	4.00399999999999	19	valuation	128	1	235.053166666667	226.200637037037	221.721766666667	2000	20	6	1900
204.041	0.52000000000001	19	rating	128	1	235.053166666667	226.200637037037	221.721766666667	2000	20	6	1900
204.561	0	19	response	128	1	235.053166666667	226.200637037037	221.721766666667	2000	20	6	1900
204.561	0.5	19	feedback	128	1	235.053166666667	226.200637037037	221.721766666667	2000	20	6	1900
212.982	4.00399999999999	20	valuation	21	1	246.156955555556	225.426788888889	227.67477037037	80	0.04	0	77.6
216.986	0.795000000000016	20	rating	21	1	246.156955555556	225.426788888889	227.67477037037	80	0.04	0	77.6
217.781	0	20	response	21	1	246.156955555556	225.426788888889	227.67477037037	80	0.04	0	77.6
217.781	0.5	20	feedback	21	1	246.156955555556	225.426788888889	227.67477037037	80	0.04	0	77.6
220.592	4.00399999999999	21	valuation	189	2	211.252040740741	198.967348148148	187.437492592593	90	7.353	13.05	48.447
224.596	1.55199999999999	21	rating	189	2	211.252040740741	198.967348148148	187.437492592593	90	7.353	13.05	48.447
226.148	0	21	response	189	2	211.252040740741	198.967348148148	187.437492592593	90	7.353	13.05	48.447
226.148	0.5	21	feedback	189	2	211.252040740741	198.967348148148	187.437492592593	90	7.353	13.05	48.447
231.705	4.00399999999999	22	valuation	190	1	199.895948148148	186.299866666667	176.397803703704	280	39.2	61.6	30.8
235.709	1.12	22	rating	190	1	199.895948148148	186.299866666667	176.397803703704	280	39.2	61.6	30.8
236.829	0	22	response	190	1	199.895948148148	186.299866666667	176.397803703704	280	39.2	61.6	30.8
236.829	0.5	22	feedback	190	1	199.895948148148	186.299866666667	176.397803703704	280	39.2	61.6	30.8
243.805	4.00999999999999	23	valuation	295	3	239.004677777778	235.214896296296	233.496577777778	37.5	2.025	10.875	22.5
247.815	0.63300000000001	23	rating	295	3	239.004677777778	235.214896296296	233.496577777778	37.5	2.025	10.875	22.5
248.448	0	23	response	295	3	239.004677777778	235.214896296296	233.496577777778	37.5	2.025	10.875	22.5
248.448	0.5	23	feedback	295	3	239.004677777778	235.214896296296	233.496577777778	37.5	2.025	10.875	22.5
254.655	4.00899999999999	24	valuation	528	1	230.325681481481	196.577111111111	178.462585185185	312.5	2.1875	0.3125	29.375
258.664	0.627999999999986	24	rating	528	1	230.325681481481	196.577111111111	178.462585185185	312.5	2.1875	0.3125	29.375
259.292	0	24	response	528	1	230.325681481481	196.577111111111	178.462585185185	312.5	2.1875	0.3125	29.375
259.292	0.5	24	feedback	528	1	230.325681481481	196.577111111111	178.462585185185	312.5	2.1875	0.3125	29.375
266.675	4.00399999999996	25	valuation	446	1	241.791362962963	214.010848148148	202.937925925926	80	0.8	0	2.4
270.679	1.60300000000001	25	rating	446	1	241.791362962963	214.010848148148	202.937925925926	80	0.8	0	2.4
272.282	0	25	response	446	1	241.791362962963	214.010848148148	202.937925925926	80	0.8	0	2.4
272.282	0.5	25	feedback	446	1	241.791362962963	214.010848148148	202.937925925926	80	0.8	0	2.4
276.651	4.01400000000001	26	valuation	205	1	234.69972962963	229.598588888889	221.566211111111	28	3.4608	0.2184	6.692
280.665	0.549999999999955	26	rating	205	1	234.69972962963	229.598588888889	221.566211111111	28	3.4608	0.2184	6.692
281.215	0	26	response	205	1	234.69972962963	229.598588888889	221.566211111111	28	3.4608	0.2184	6.692
281.215	0.5	26	feedback	205	1	234.69972962963	229.598588888889	221.566211111111	28	3.4608	0.2184	6.692
284.293	4.02100000000002	27	valuation	158	3	240.114377777778	223.642777777778	199.765466666667	48	2.928	10.08	32.64
288.314	0.548999999999978	27	rating	158	3	240.114377777778	223.642777777778	199.765466666667	48	2.928	10.08	32.64
288.863	0	27	response	158	3	240.114377777778	223.642777777778	199.765466666667	48	2.928	10.08	32.64
288.863	0.5	27	feedback	158	3	240.114377777778	223.642777777778	199.765466666667	48	2.928	10.08	32.64
292.97	4.00399999999996	28	valuation	379	3	245.378422222222	237.3909	194.78592962963	594	6.831	1.0692	127.0566
296.974	0.485000000000014	28	rating	379	3	245.378422222222	237.3909	194.78592962963	594	6.831	1.0692	127.0566
297.459	0	28	response	379	3	245.378422222222	237.3909	194.78592962963	594	6.831	1.0692	127.0566
297.459	0.5	28	feedback	379	3	245.378422222222	237.3909	194.78592962963	594	6.831	1.0692	127.0566
303.397	4.00400000000002	29	valuation	97	2	195.692644444444	183.59317037037	168.92712962963	150	8.85	25.2	41.1
307.401	0.550999999999988	29	rating	97	2	195.692644444444	183.59317037037	168.92712962963	150	8.85	25.2	41.1
307.952	0	29	response	97	2	195.692644444444	183.59317037037	168.92712962963	150	8.85	25.2	41.1
307.952	0.5	29	feedback	97	2	195.692644444444	183.59317037037	168.92712962963	150	8.85	25.2	41.1
313.098	4.005	30	valuation	34	2	231.769207407407	217.87617037037	204.482866666667	380	74.784	132.392	13.49
317.103	1.33199999999999	30	rating	34	2	231.769207407407	217.87617037037	204.482866666667	380	74.784	132.392	13.49
318.435	0	30	response	34	2	231.769207407407	217.87617037037	204.482866666667	380	74.784	132.392	13.49
318.435	0.5	30	feedback	34	2	231.769207407407	217.87617037037	204.482866666667	380	74.784	132.392	13.49
323.328	4.01900000000001	31	valuation	444	1	202.930114814815	207.96272962963	188.174996296296	170	1.7	0.51	4.93
327.347	0.694000000000017	31	rating	444	1	202.930114814815	207.96272962963	188.174996296296	170	1.7	0.51	4.93
328.041	0	31	response	444	1	202.930114814815	207.96272962963	188.174996296296	170	1.7	0.51	4.93
328.041	0.5	31	feedback	444	1	202.930114814815	207.96272962963	188.174996296296	170	1.7	0.51	4.93
330.974	4.00400000000002	32	valuation	286	2	225.570633333333	211.376503703704	200.974655555556	100	6.6	29.5	58.5
334.978	0.779999999999973	32	rating	286	2	225.570633333333	211.376503703704	200.974655555556	100	6.6	29.5	58.5
335.758	0	32	response	286	2	225.570633333333	211.376503703704	200.974655555556	100	6.6	29.5	58.5
335.758	0.5	32	feedback	286	2	225.570633333333	211.376503703704	200.974655555556	100	6.6	29.5	58.5
339.617	4.00399999999996	33	valuation	551	1	232.550692592593	223.630081481482	191.2882	200	13	13.8	59
343.621	0.599000000000046	33	rating	551	1	232.550692592593	223.630081481482	191.2882	200	13	13.8	59
344.22	0	33	response	551	1	232.550692592593	223.630081481482	191.2882	200	13	13.8	59
344.22	0.5	33	feedback	551	1	232.550692592593	223.630081481482	191.2882	200	13	13.8	59
352.37	4.00799999999998	34	valuation	552	4	211.985662962963	193.860933333333	181.95027037037	500	60	37	7.5
356.378	1.262	34	rating	552	4	211.985662962963	193.860933333333	181.95027037037	500	60	37	7.5
357.64	0	34	response	552	4	211.985662962963	193.860933333333	181.95027037037	500	60	37	7.5
357.64	0.5	34	feedback	552	4	211.985662962963	193.860933333333	181.95027037037	500	60	37	7.5
362.259	4.01900000000001	35	valuation	182	1	233.728185185185	230.880155555556	228.577292592593	100	7.3	1.3	77
366.278	0.524000000000001	35	rating	182	1	233.728185185185	230.880155555556	228.577292592593	100	7.3	1.3	77
366.802	0	35	response	182	1	233.728185185185	230.880155555556	228.577292592593	100	7.3	1.3	77
366.802	0.5	35	feedback	182	1	233.728185185185	230.880155555556	228.577292592593	100	7.3	1.3	77
369.494	4.00299999999999	36	valuation	504	2	237.865848148148	215.573244444445	178.105	10	0.57	3.07	5.73
373.497	0.897999999999968	36	rating	504	2	237.865848148148	215.573244444445	178.105	10	0.57	3.07	5.73
374.395	0	36	response	504	2	237.865848148148	215.573244444445	178.105	10	0.57	3.07	5.73
374.395	0.5	36	feedback	504	2	237.865848148148	215.573244444445	178.105	10	0.57	3.07	5.73
381.102	4.00300000000004	37	valuation	269	1	231.128981481482	233.808259259259	209.526407407407	249	0.9711	4.6065	3.6354
385.105	0.733000000000004	37	rating	269	1	231.128981481482	233.808259259259	209.526407407407	249	0.9711	4.6065	3.6354
385.838	0	37	response	269	1	231.128981481482	233.808259259259	209.526407407407	249	0.9711	4.6065	3.6354
385.838	0.5	37	feedback	269	1	231.128981481482	233.808259259259	209.526407407407	249	0.9711	4.6065	3.6354
390.59	4.00500000000005	38	valuation	299	1	201.18262962963	197.734925925926	162.005540740741	380	13.414	1.444	19
394.595	0.493999999999971	38	rating	299	1	201.18262962963	197.734925925926	162.005540740741	380	13.414	1.444	19
395.089	0	38	response	299	1	201.18262962963	197.734925925926	162.005540740741	380	13.414	1.444	19
395.089	0.5	38	feedback	299	1	201.18262962963	197.734925925926	162.005540740741	380	13.414	1.444	19
401.179	4.01500000000004	39	valuation	541	1	233.812844444444	223.655855555556	214.637522222222	520	109.2	10.4	0
405.194	0.555000000000007	39	rating	541	1	233.812844444444	223.655855555556	214.637522222222	520	109.2	10.4	0
405.749	0	39	response	541	1	233.812844444444	223.655855555556	214.637522222222	520	109.2	10.4	0
405.749	0.5	39	feedback	541	1	233.812844444444	223.655855555556	214.637522222222	520	109.2	10.4	0
412.597	4.00800000000004	40	valuation	194	2	218.023318518519	218.78382962963	201.719222222222	50	0.435	0.275	4.685
416.605	0.495000000000005	40	rating	194	2	218.023318518519	218.78382962963	201.719222222222	50	0.435	0.275	4.685
417.1	0	40	response	194	2	218.023318518519	218.78382962963	201.719222222222	50	0.435	0.275	4.685
417.1	0.5	40	feedback	194	2	218.023318518519	218.78382962963	201.719222222222	50	0.435	0.275	4.685
423.424	4.00400000000002	41	valuation	99	1	228.399018518518	221.835125925926	211.244525925926	500	29.5	105	260
427.428	0.507999999999981	41	rating	99	1	228.399018518518	221.835125925926	211.244525925926	500	29.5	105	260
427.936	0	41	response	99	1	228.399018518518	221.835125925926	211.244525925926	500	29.5	105	260
427.936	0.5	41	feedback	99	1	228.399018518518	221.835125925926	211.244525925926	500	29.5	105	260
431.127	4.005	42	valuation	423	2	231.982088888889	212.613714814815	188.355359259259	95	7.03	1.33	48.07
435.132	0.815999999999974	42	rating	423	2	231.982088888889	212.613714814815	188.355359259259	95	7.03	1.33	48.07
435.948	0	42	response	423	2	231.982088888889	212.613714814815	188.355359259259	95	7.03	1.33	48.07
435.948	0.5	42	feedback	423	2	231.982088888889	212.613714814815	188.355359259259	95	7.03	1.33	48.07
440.967	4.00400000000002	43	valuation	59	4	212.601351851852	198.902051851852	181.707014814815	1200	34.8	93.6	448.8
444.971	1.08499999999998	43	rating	59	4	212.601351851852	198.902051851852	181.707014814815	1200	34.8	93.6	448.8
446.056	0	43	response	59	4	212.601351851852	198.902051851852	181.707014814815	1200	34.8	93.6	448.8
446.056	0.5	43	feedback	59	4	212.601351851852	198.902051851852	181.707014814815	1200	34.8	93.6	448.8
449.372	4.005	44	valuation	327	3	238.744462962963	227.05712962963	175.484018518519	225	4.635	5.6025	25.7625
453.377	0.740999999999985	44	rating	327	3	238.744462962963	227.05712962963	175.484018518519	225	4.635	5.6025	25.7625
454.118	0	44	response	327	3	238.744462962963	227.05712962963	175.484018518519	225	4.635	5.6025	25.7625
454.118	0.5	44	feedback	327	3	238.744462962963	227.05712962963	175.484018518519	225	4.635	5.6025	25.7625
462.406	4.005	45	valuation	103	3	226.413511111111	205.373074074074	199.760314814815	120	4.2	14.4	41.16
466.411	0.702999999999975	45	rating	103	3	226.413511111111	205.373074074074	199.760314814815	120	4.2	14.4	41.16
467.114	0	45	response	103	3	226.413511111111	205.373074074074	199.760314814815	120	4.2	14.4	41.16
467.114	0.5	45	feedback	103	3	226.413511111111	205.373074074074	199.760314814815	120	4.2	14.4	41.16
475.655	4.00700000000001	46	valuation	271	1	240.993555555556	242.719611111111	236.07897037037	5	0.088	0.0145	0.1645
479.662	0.574000000000012	46	rating	271	1	240.993555555556	242.719611111111	236.07897037037	5	0.088	0.0145	0.1645
480.236	0	46	response	271	1	240.993555555556	242.719611111111	236.07897037037	5	0.088	0.0145	0.1645
480.236	0.5	46	feedback	271	1	240.993555555556	242.719611111111	236.07897037037	5	0.088	0.0145	0.1645
483.822	4.00400000000002	47	valuation	226	1	238.889974074074	236.237140740741	230.784377777778	200	24	5	124
487.826	0.778999999999996	47	rating	226	1	238.889974074074	236.237140740741	230.784377777778	200	24	5	124
488.605	0	47	response	226	1	238.889974074074	236.237140740741	230.784377777778	200	24	5	124
488.605	0.5	47	feedback	226	1	238.889974074074	236.237140740741	230.784377777778	200	24	5	124
