onset	duration	trial_id	trial_type	image_id	rating_value	red	green	blue	gram	protein	fat	carb
10.019	4.005	1	valuation	344	3	213.3786	188.994266666667	172.751907407407	72.4	3.5476	19.06292	38.19824
14.024	0.607000000000001	1	rating	344	3	213.3786	188.994266666667	172.751907407407	72.4	3.5476	19.06292	38.19824
14.631	0	1	response	344	3	213.3786	188.994266666667	172.751907407407	72.4	3.5476	19.06292	38.19824
14.631	0.5	1	feedback	344	3	213.3786	188.994266666667	172.751907407407	72.4	3.5476	19.06292	38.19824
22.91	4.004	2	valuation	248	3	224.806459259259	224.496444444444	225.375659259259	60	0.36	0.36	4.38
26.914	1.216	2	rating	248	3	224.806459259259	224.496444444444	225.375659259259	60	0.36	0.36	4.38
28.13	0	2	response	248	3	224.806459259259	224.496444444444	225.375659259259	60	0.36	0.36	4.38
28.13	0.5	2	feedback	248	3	224.806459259259	224.496444444444	225.375659259259	60	0.36	0.36	4.38
36.535	4.005	3	valuation	473	2	225.898155555556	198.22077037037	157.017088888889	245	39.102	30.723	35.231
40.54	0.926000000000002	3	rating	473	2	225.898155555556	198.22077037037	157.017088888889	245	39.102	30.723	35.231
41.466	0	3	response	473	2	225.898155555556	198.22077037037	157.017088888889	245	39.102	30.723	35.231
41.466	0.5	3	feedback	473	2	225.898155555556	198.22077037037	157.017088888889	245	39.102	30.723	35.231
46.823	4.004	4	valuation	348	3	221.590448148148	199.02867037037	166.121214814815	10	0.919	0.43	7.141
50.827	0.57	4	rating	348	3	221.590448148148	199.02867037037	166.121214814815	10	0.919	0.43	7.141
51.397	0	4	response	348	3	221.590448148148	199.02867037037	166.121214814815	10	0.919	0.43	7.141
51.397	0.5	4	feedback	348	3	221.590448148148	199.02867037037	166.121214814815	10	0.919	0.43	7.141
57.721	4.005	5	valuation	481	3	228.953885185185	223.616744444445	209.732762962963	70	4.13	5.159	20.727
61.726	0.666000000000004	5	rating	481	3	228.953885185185	223.616744444445	209.732762962963	70	4.13	5.159	20.727
62.392	0	5	response	481	3	228.953885185185	223.616744444445	209.732762962963	70	4.13	5.159	20.727
62.392	0.5	5	feedback	481	3	228.953885185185	223.616744444445	209.732762962963	70	4.13	5.159	20.727
68.446	4.005	6	valuation	494	3	242.279511111111	229.845	217.972233333333	10	1	1.6	6.4
72.451	1.02000000000001	6	rating	494	3	242.279511111111	229.845	217.972233333333	10	1	1.6	6.4
73.471	0	6	response	494	3	242.279511111111	229.845	217.972233333333	10	1	1.6	6.4
73.471	0.5	6	feedback	494	3	242.279511111111	229.845	217.972233333333	10	1	1.6	6.4
76.795	4.005	7	valuation	499	4	223.644125925926	218.803355555555	212.567340740741	18	1.26	6.84	8.46
80.8	0.814999999999998	7	rating	499	4	223.644125925926	218.803355555555	212.567340740741	18	1.26	6.84	8.46
81.615	0	7	response	499	4	223.644125925926	218.803355555555	212.567340740741	18	1.26	6.84	8.46
81.615	0.5	7	feedback	499	4	223.644125925926	218.803355555555	212.567340740741	18	1.26	6.84	8.46
85.843	4.005	8	valuation	451	1	232.25152962963	199.246766666667	173.495596296296	7	0.8372	4.312	0.7378
89.848	0.725999999999999	8	rating	451	1	232.25152962963	199.246766666667	173.495596296296	7	0.8372	4.312	0.7378
90.574	0	8	response	451	1	232.25152962963	199.246766666667	173.495596296296	7	0.8372	4.312	0.7378
90.574	0.5	8	feedback	451	1	232.25152962963	199.246766666667	173.495596296296	7	0.8372	4.312	0.7378
95.326	4.00500000000001	9	valuation	537	1	226.169014814815	197.545233333333	179.910792592593	200	40	6	2
99.331	0.850999999999999	9	rating	537	1	226.169014814815	197.545233333333	179.910792592593	200	40	6	2
100.182	0	9	response	537	1	226.169014814815	197.545233333333	179.910792592593	200	40	6	2
100.182	0.5	9	feedback	537	1	226.169014814815	197.545233333333	179.910792592593	200	40	6	2
104.152	4.005	10	valuation	197	4	227.24517037037	202.144411111111	195.569248148148	780	7.02	1.56	19.266
108.157	0.662000000000006	10	rating	197	4	227.24517037037	202.144411111111	195.569248148148	780	7.02	1.56	19.266
108.819	0	10	response	197	4	227.24517037037	202.144411111111	195.569248148148	780	7.02	1.56	19.266
108.819	0.5	10	feedback	197	4	227.24517037037	202.144411111111	195.569248148148	780	7.02	1.56	19.266
111.873	4.00399999999999	11	valuation	123	1	248.051559259259	246.067514814815	243.564925925926	100	0.7	2.7	90.9
115.877	0.786000000000001	11	rating	123	1	248.051559259259	246.067514814815	243.564925925926	100	0.7	2.7	90.9
116.663	0	11	response	123	1	248.051559259259	246.067514814815	243.564925925926	100	0.7	2.7	90.9
116.663	0.5	11	feedback	123	1	248.051559259259	246.067514814815	243.564925925926	100	0.7	2.7	90.9
122.348	4.004	12	valuation	29	1	214.292388888889	199.70152962963	173.978244444444	500	32.05	84.25	212.6
126.352	0.905000000000001	12	rating	29	1	214.292388888889	199.70152962963	173.978244444444	500	32.05	84.25	212.6
127.257	0	12	response	29	1	214.292388888889	199.70152962963	173.978244444444	500	32.05	84.25	212.6
127.257	0.5	12	feedback	29	1	214.292388888889	199.70152962963	173.978244444444	500	32.05	84.25	212.6
131.102	4.00399999999999	13	valuation	101	3	234.392659259259	231.396951851852	226.88712962963	50	3.3	16.65	23
135.106	1.54400000000001	13	rating	101	3	234.392659259259	231.396951851852	226.88712962963	50	3.3	16.65	23
136.65	0	13	response	101	3	234.392659259259	231.396951851852	226.88712962963	50	3.3	16.65	23
136.65	0.5	13	feedback	101	3	234.392659259259	231.396951851852	226.88712962963	50	3.3	16.65	23
140.361	4.00400000000002	14	valuation	270	3	233.577507407407	232.783248148148	213.280811111111	580	15.66	8.7	60.32
144.365	0.699999999999989	14	rating	270	3	233.577507407407	232.783248148148	213.280811111111	580	15.66	8.7	60.32
145.065	0	14	response	270	3	233.577507407407	232.783248148148	213.280811111111	580	15.66	8.7	60.32
145.065	0.5	14	feedback	270	3	233.577507407407	232.783248148148	213.280811111111	580	15.66	8.7	60.32
152.434	4.00700000000001	15	valuation	84	2	232.663366666667	225.3264	210.749925925926	450	26.55	94.5	234
156.441	1.113	15	rating	84	2	232.663366666667	225.3264	210.749925925926	450	26.55	94.5	234
157.554	0	15	response	84	2	232.663366666667	225.3264	210.749925925926	450	26.55	94.5	234
157.554	0.5	15	feedback	84	2	232.663366666667	225.3264	210.749925925926	450	26.55	94.5	234
160.769	4.00399999999999	16	valuation	181	2	229.859518518518	218.530111111111	203.711755555556	250	22.5	15.1	149
164.773	1.17000000000002	16	rating	181	2	229.859518518518	218.530111111111	203.711755555556	250	22.5	15.1	149
165.943	0	16	response	181	2	229.859518518518	218.530111111111	203.711755555556	250	22.5	15.1	149
165.943	0.5	16	feedback	181	2	229.859518518518	218.530111111111	203.711755555556	250	22.5	15.1	149
171.087	4.00400000000002	17	valuation	312	1	237.817114814815	229.681992592593	220.793374074074	235	31.114	3.4075	9.4
175.091	1.21199999999999	17	rating	312	1	237.817114814815	229.681992592593	220.793374074074	235	31.114	3.4075	9.4
176.303	0	17	response	312	1	237.817114814815	229.681992592593	220.793374074074	235	31.114	3.4075	9.4
176.303	0.5	17	feedback	312	1	237.817114814815	229.681992592593	220.793374074074	235	31.114	3.4075	9.4
183.559	4.00800000000001	18	valuation	279	1	241.263014814815	240.356188888889	238.881318518519	65	3.38	1.105	18.785
187.567	0.649000000000001	18	rating	279	1	241.263014814815	240.356188888889	238.881318518519	65	3.38	1.105	18.785
188.216	0	18	response	279	1	241.263014814815	240.356188888889	238.881318518519	65	3.38	1.105	18.785
188.216	0.5	18	feedback	279	1	241.263014814815	240.356188888889	238.881318518519	65	3.38	1.105	18.785
195.86	4.00399999999999	19	valuation	200	4	240.261533333333	228.197455555556	202.091514814815	560	4.032	0.784	37.072
199.864	1.19200000000001	19	rating	200	4	240.261533333333	228.197455555556	202.091514814815	560	4.032	0.784	37.072
201.056	0	19	response	200	4	240.261533333333	228.197455555556	202.091514814815	560	4.032	0.784	37.072
201.056	0.5	19	feedback	200	4	240.261533333333	228.197455555556	202.091514814815	560	4.032	0.784	37.072
208.175	4.00399999999999	20	valuation	14	4	243.826225925926	236.627544444445	222.833840740741	89	4.806	17.8	44.5
212.179	0.558999999999997	20	rating	14	4	243.826225925926	236.627544444445	222.833840740741	89	4.806	17.8	44.5
212.738	0	20	response	14	4	243.826225925926	236.627544444445	222.833840740741	89	4.806	17.8	44.5
212.738	0.5	20	feedback	14	4	243.826225925926	236.627544444445	222.833840740741	89	4.806	17.8	44.5
221.272	4.00700000000001	21	valuation	211	4	200.386403703704	192.532311111111	195.237788888889	125	0.975	0.4875	6.6625
225.279	0.759000000000015	21	rating	211	4	200.386403703704	192.532311111111	195.237788888889	125	0.975	0.4875	6.6625
226.038	0	21	response	211	4	200.386403703704	192.532311111111	195.237788888889	125	0.975	0.4875	6.6625
226.038	0.5	21	feedback	211	4	200.386403703704	192.532311111111	195.237788888889	125	0.975	0.4875	6.6625
231.45	4.00500000000002	22	valuation	352	2	241.615707407407	226.243751851852	210.74107037037	900	65.7	6.3	463.5
235.455	0.670999999999992	22	rating	352	2	241.615707407407	226.243751851852	210.74107037037	900	65.7	6.3	463.5
236.126	0	22	response	352	2	241.615707407407	226.243751851852	210.74107037037	900	65.7	6.3	463.5
236.126	0.5	22	feedback	352	2	241.615707407407	226.243751851852	210.74107037037	900	65.7	6.3	463.5
239.073	4.005	23	valuation	347	2	226.202544444444	180.040314814815	170.284607407407	50	1.85	0.83	27.4
243.078	0.453000000000003	23	rating	347	2	226.202544444444	180.040314814815	170.284607407407	50	1.85	0.83	27.4
243.531	0	23	response	347	2	226.202544444444	180.040314814815	170.284607407407	50	1.85	0.83	27.4
243.531	0.5	23	feedback	347	2	226.202544444444	180.040314814815	170.284607407407	50	1.85	0.83	27.4
246.197	4.00399999999999	24	valuation	107	1	211.284196296296	202.555433333333	200.890696296296	120	6.48	18.48	61.8
250.201	1.673	24	rating	107	1	211.284196296296	202.555433333333	200.890696296296	120	6.48	18.48	61.8
251.874	0	24	response	107	1	211.284196296296	202.555433333333	200.890696296296	120	6.48	18.48	61.8
251.874	0.5	24	feedback	107	1	211.284196296296	202.555433333333	200.890696296296	120	6.48	18.48	61.8
256.364	4.00800000000004	25	valuation	36	2	226.112862962963	222.165737037037	213.557911111111	900	45.27	147.06	266.67
260.372	0.704999999999984	25	rating	36	2	226.112862962963	222.165737037037	213.557911111111	900	45.27	147.06	266.67
261.077	0	25	response	36	2	226.112862962963	222.165737037037	213.557911111111	900	45.27	147.06	266.67
261.077	0.5	25	feedback	36	2	226.112862962963	222.165737037037	213.557911111111	900	45.27	147.06	266.67
268.959	4.005	26	valuation	261	2	246.434914814815	242.048607407407	231.333162962963	80	4.24	0.96	3.744
272.964	0.692999999999984	26	rating	261	2	246.434914814815	242.048607407407	231.333162962963	80	4.24	0.96	3.744
273.657	0	26	response	261	2	246.434914814815	242.048607407407	231.333162962963	80	4.24	0.96	3.744
273.657	0.5	26	feedback	261	2	246.434914814815	242.048607407407	231.333162962963	80	4.24	0.96	3.744
277.234	4.00400000000002	27	valuation	464	3	218.83512962963	197.774214814815	167.656703703704	1990	8.358	2.587	234.024
281.238	0.648000000000025	27	rating	464	3	218.83512962963	197.774214814815	167.656703703704	1990	8.358	2.587	234.024
281.886	0	27	response	464	3	218.83512962963	197.774214814815	167.656703703704	1990	8.358	2.587	234.024
281.886	0.5	27	feedback	464	3	218.83512962963	197.774214814815	167.656703703704	1990	8.358	2.587	234.024
286.797	4.00399999999996	28	valuation	410	3	234.31097037037	214.737685185185	193.043496296296	300	75.9	144.3	24.9
290.801	0.97399999999999	28	rating	410	3	234.31097037037	214.737685185185	193.043496296296	300	75.9	144.3	24.9
291.775	0	28	response	410	3	234.31097037037	214.737685185185	193.043496296296	300	75.9	144.3	24.9
291.775	0.5	28	feedback	410	3	234.31097037037	214.737685185185	193.043496296296	300	75.9	144.3	24.9
295.222	4.00300000000004	29	valuation	187	4	243.599374074074	219.512066666667	207.100203703704	70	3.64	13.16	25.13
299.225	0.778999999999996	29	rating	187	4	243.599374074074	219.512066666667	207.100203703704	70	3.64	13.16	25.13
300.004	0	29	response	187	4	243.599374074074	219.512066666667	207.100203703704	70	3.64	13.16	25.13
300.004	0.5	29	feedback	187	4	243.599374074074	219.512066666667	207.100203703704	70	3.64	13.16	25.13
305.559	4.00399999999996	30	valuation	168	4	234.105851851852	222.37312962963	215.18542962963	34	2.176	9.894	20.57
309.563	0.935000000000002	30	rating	168	4	234.105851851852	222.37312962963	215.18542962963	34	2.176	9.894	20.57
310.498	0	30	response	168	4	234.105851851852	222.37312962963	215.18542962963	34	2.176	9.894	20.57
310.498	0.5	30	feedback	168	4	234.105851851852	222.37312962963	215.18542962963	34	2.176	9.894	20.57
317.075	4.00700000000001	31	valuation	547	2	245.712811111111	209.884796296296	186.342037037037	112.5	24.1875	22.5	57.9375
321.082	1.65500000000003	31	rating	547	2	245.712811111111	209.884796296296	186.342037037037	112.5	24.1875	22.5	57.9375
322.737	0	31	response	547	2	245.712811111111	209.884796296296	186.342037037037	112.5	24.1875	22.5	57.9375
322.737	0.5	31	feedback	547	2	245.712811111111	209.884796296296	186.342037037037	112.5	24.1875	22.5	57.9375
329.446	4.00399999999996	32	valuation	128	2	235.053166666667	226.200637037037	221.721766666667	2000	20	6	1900
333.45	0.66900000000004	32	rating	128	2	235.053166666667	226.200637037037	221.721766666667	2000	20	6	1900
334.119	0	32	response	128	2	235.053166666667	226.200637037037	221.721766666667	2000	20	6	1900
334.119	0.5	32	feedback	128	2	235.053166666667	226.200637037037	221.721766666667	2000	20	6	1900
339.942	4.00400000000002	33	valuation	235	1	233.06632962963	208.093485185185	191.518381481481	640	4.608	0.896	42.368
343.946	0.947999999999979	33	rating	235	1	233.06632962963	208.093485185185	191.518381481481	640	4.608	0.896	42.368
344.894	0	33	response	235	1	233.06632962963	208.093485185185	191.518381481481	640	4.608	0.896	42.368
344.894	0.5	33	feedback	235	1	233.06632962963	208.093485185185	191.518381481481	640	4.608	0.896	42.368
352.645	4.00900000000001	34	valuation	207	2	236.945751851852	222.32802962963	217.782514814815	50	0.55	0.1	3.6
356.654	0.696000000000026	34	rating	207	2	236.945751851852	222.32802962963	217.782514814815	50	0.55	0.1	3.6
357.35	0	34	response	207	2	236.945751851852	222.32802962963	217.782514814815	50	0.55	0.1	3.6
357.35	0.5	34	feedback	207	2	236.945751851852	222.32802962963	217.782514814815	50	0.55	0.1	3.6
364.868	4.00400000000002	35	valuation	11	2	241.980125925926	232.602592592593	207.044166666667	300	52.47	68.61	0.45
368.872	1.04599999999999	35	rating	11	2	241.980125925926	232.602592592593	207.044166666667	300	52.47	68.61	0.45
369.918	0	35	response	11	2	241.980125925926	232.602592592593	207.044166666667	300	52.47	68.61	0.45
369.918	0.5	35	feedback	11	2	241.980125925926	232.602592592593	207.044166666667	300	52.47	68.61	0.45
376.106	4.00400000000002	36	valuation	539	4	233.579448148148	215.357944444444	191.831003703704	80	17.36	40	7.52
380.11	0.978999999999985	36	rating	539	4	233.579448148148	215.357944444444	191.831003703704	80	17.36	40	7.52
381.089	0	36	response	539	4	233.579448148148	215.357944444444	191.831003703704	80	17.36	40	7.52
381.089	0.5	36	feedback	539	4	233.579448148148	215.357944444444	191.831003703704	80	17.36	40	7.52
385.217	4.00300000000004	37	valuation	522	2	211.285055555556	209.573311111111	184.721655555556	320	4.48	0.48	7.2
389.22	1.22899999999998	37	rating	522	2	211.285055555556	209.573311111111	184.721655555556	320	4.48	0.48	7.2
390.449	0	37	response	522	2	211.285055555556	209.573311111111	184.721655555556	320	4.48	0.48	7.2
390.449	0.5	37	feedback	522	2	211.285055555556	209.573311111111	184.721655555556	320	4.48	0.48	7.2
397.447	4.005	38	valuation	216	2	228.954881481481	203.75372962963	184.151355555556	300	2.49	0.27	34.23
401.452	0.91700000000003	38	rating	216	2	228.954881481481	203.75372962963	184.151355555556	300	2.49	0.27	34.23
402.369	0	38	response	216	2	228.954881481481	203.75372962963	184.151355555556	300	2.49	0.27	34.23
402.369	0.5	38	feedback	216	2	228.954881481481	203.75372962963	184.151355555556	300	2.49	0.27	34.23
409.209	4.00400000000002	39	valuation	427	1	245.42262962963	227.004585185185	206.62447037037	15	2.16	9.375	1.59
413.213	0.640999999999963	39	rating	427	1	245.42262962963	227.004585185185	206.62447037037	15	2.16	9.375	1.59
413.854	0	39	response	427	1	245.42262962963	227.004585185185	206.62447037037	15	2.16	9.375	1.59
413.854	0.5	39	feedback	427	1	245.42262962963	227.004585185185	206.62447037037	15	2.16	9.375	1.59
420.321	4.00399999999996	40	valuation	199	3	244.756914814815	225.456751851852	215.303337037037	300	0.78	0.27	10.92
424.325	1.05200000000002	40	rating	199	3	244.756914814815	225.456751851852	215.303337037037	300	0.78	0.27	10.92
425.377	0	40	response	199	3	244.756914814815	225.456751851852	215.303337037037	300	0.78	0.27	10.92
425.377	0.5	40	feedback	199	3	244.756914814815	225.456751851852	215.303337037037	300	0.78	0.27	10.92
430.006	4.00400000000002	41	valuation	77	3	239.229648148148	230.744422222222	213.857251851852	266	20.9874	23.807	62.111
434.01	1.02100000000002	41	rating	77	3	239.229648148148	230.744422222222	213.857251851852	266	20.9874	23.807	62.111
435.031	0	41	response	77	3	239.229648148148	230.744422222222	213.857251851852	266	20.9874	23.807	62.111
435.031	0.5	41	feedback	77	3	239.229648148148	230.744422222222	213.857251851852	266	20.9874	23.807	62.111
443.043	4.00900000000001	42	valuation	3	4	228.507333333333	213.068881481482	197.702585185185	720	38.448	64.8	146.16
447.052	0.638999999999953	42	rating	3	4	228.507333333333	213.068881481482	197.702585185185	720	38.448	64.8	146.16
447.691	0	42	response	3	4	228.507333333333	213.068881481482	197.702585185185	720	38.448	64.8	146.16
447.691	0.5	42	feedback	3	4	228.507333333333	213.068881481482	197.702585185185	720	38.448	64.8	146.16
455.836	4.00599999999997	43	valuation	152	3	232.926840740741	205.275440740741	169.15117037037	20	2.6	4.8	11.2
459.842	0.573000000000036	43	rating	152	3	232.926840740741	205.275440740741	169.15117037037	20	2.6	4.8	11.2
460.415	0	43	response	152	3	232.926840740741	205.275440740741	169.15117037037	20	2.6	4.8	11.2
460.415	0.5	43	feedback	152	3	232.926840740741	205.275440740741	169.15117037037	20	2.6	4.8	11.2
464.774	4.00400000000002	44	valuation	177	4	242.407581481482	227.46987037037	213.553496296296	100	5.5	16.5	71.8
468.778	0.854999999999961	44	rating	177	4	242.407581481482	227.46987037037	213.553496296296	100	5.5	16.5	71.8
469.633	0	44	response	177	4	242.407581481482	227.46987037037	213.553496296296	100	5.5	16.5	71.8
469.633	0.5	44	feedback	177	4	242.407581481482	227.46987037037	213.553496296296	100	5.5	16.5	71.8
474.645	4.005	45	valuation	418	1	243.272259259259	237.956851851852	227.336403703704	1000	24.6	2.8	23.4
478.65	0.759000000000015	45	rating	418	1	243.272259259259	237.956851851852	227.336403703704	1000	24.6	2.8	23.4
479.409	0	45	response	418	1	243.272259259259	237.956851851852	227.336403703704	1000	24.6	2.8	23.4
479.409	0.5	45	feedback	418	1	243.272259259259	237.956851851852	227.336403703704	1000	24.6	2.8	23.4
481.942	4.00299999999999	46	valuation	170	2	235.570562962963	230.660907407407	228.13822962963	18.8	0.94	6.6928	10.528
485.945	1.35399999999998	46	rating	170	2	235.570562962963	230.660907407407	228.13822962963	18.8	0.94	6.6928	10.528
487.299	0	46	response	170	2	235.570562962963	230.660907407407	228.13822962963	18.8	0.94	6.6928	10.528
487.299	0.5	46	feedback	170	2	235.570562962963	230.660907407407	228.13822962963	18.8	0.94	6.6928	10.528
490.094	4.005	47	valuation	66	3	228.016977777778	204.47902962963	177.90227037037	150	7.8	28.2	53.85
494.099	0.841000000000008	47	rating	66	3	228.016977777778	204.47902962963	177.90227037037	150	7.8	28.2	53.85
494.94	0	47	response	66	3	228.016977777778	204.47902962963	177.90227037037	150	7.8	28.2	53.85
494.94	0.5	47	feedback	66	3	228.016977777778	204.47902962963	177.90227037037	150	7.8	28.2	53.85
