onset	duration	trial_id	trial_type	image_id	rating_value	red	green	blue	gram	protein	fat	carb
10.028	4.005	1	valuation	157	4	198.883511111111	170.1025	123.753666666667	100	6.3	0.1	77.4
14.033	0.695	1	rating	157	4	198.883511111111	170.1025	123.753666666667	100	6.3	0.1	77.4
14.728	0	1	response	157	4	198.883511111111	170.1025	123.753666666667	100	6.3	0.1	77.4
14.728	0.5	1	feedback	157	4	198.883511111111	170.1025	123.753666666667	100	6.3	0.1	77.4
20.798	4.007	2	valuation	244	1	243.162111111111	237.490811111111	230.78427037037	66.7	5.1359	2.5346	53.2266
24.805	0.628	2	rating	244	1	243.162111111111	237.490811111111	230.78427037037	66.7	5.1359	2.5346	53.2266
25.433	0	2	response	244	1	243.162111111111	237.490811111111	230.78427037037	66.7	5.1359	2.5346	53.2266
25.433	0.5	2	feedback	244	1	243.162111111111	237.490811111111	230.78427037037	66.7	5.1359	2.5346	53.2266
33.864	4.005	3	valuation	284	3	216.230988888889	202.983677777778	199.322748148148	30	0.3	0.09	4.68
37.869	0.828000000000003	3	rating	284	3	216.230988888889	202.983677777778	199.322748148148	30	0.3	0.09	4.68
38.697	0	3	response	284	3	216.230988888889	202.983677777778	199.322748148148	30	0.3	0.09	4.68
38.697	0.5	3	feedback	284	3	216.230988888889	202.983677777778	199.322748148148	30	0.3	0.09	4.68
43.138	4.011	4	valuation	243	4	224.162848148148	201.069314814815	190.81787037037	110	0.858	0.429	5.863
47.149	0.820999999999998	4	rating	243	4	224.162848148148	201.069314814815	190.81787037037	110	0.858	0.429	5.863
47.97	0	4	response	243	4	224.162848148148	201.069314814815	190.81787037037	110	0.858	0.429	5.863
47.97	0.5	4	feedback	243	4	224.162848148148	201.069314814815	190.81787037037	110	0.858	0.429	5.863
56.126	6.50700000000001	5	miss	174	0	204.478103703704	191.206296296296	183.387344444444	100	8	36	46.5
69.542	4.005	6	valuation	81	4	230.92702962963	212.896733333333	187.214492592593	550	36.025	31.02	116.985
73.547	0.921999999999997	6	rating	81	4	230.92702962963	212.896733333333	187.214492592593	550	36.025	31.02	116.985
74.469	0	6	response	81	4	230.92702962963	212.896733333333	187.214492592593	550	36.025	31.02	116.985
74.469	0.5	6	feedback	81	4	230.92702962963	212.896733333333	187.214492592593	550	36.025	31.02	116.985
81.336	6.509	7	miss	504	0	237.865848148148	215.573244444445	178.105	10	0.57	3.07	5.73
93.681	4.004	8	valuation	213	1	240.480959259259	236.283574074074	222.884648148148	28	3.4608	0.2184	6.692
97.685	0.742000000000004	8	rating	213	1	240.480959259259	236.283574074074	222.884648148148	28	3.4608	0.2184	6.692
98.427	0	8	response	213	1	240.480959259259	236.283574074074	222.884648148148	28	3.4608	0.2184	6.692
98.427	0.5	8	feedback	213	1	240.480959259259	236.283574074074	222.884648148148	28	3.4608	0.2184	6.692
104.229	4.005	9	valuation	395	3	207.875462962963	220.707348148148	194.600777777778	1100	23.76	3.19	19.14
108.234	1.179	9	rating	395	3	207.875462962963	220.707348148148	194.600777777778	1100	23.76	3.19	19.14
109.413	0	9	response	395	3	207.875462962963	220.707348148148	194.600777777778	1100	23.76	3.19	19.14
109.413	0.5	9	feedback	395	3	207.875462962963	220.707348148148	194.600777777778	1100	23.76	3.19	19.14
116.539	6.508	10	miss	149	0	225.942218518519	180.648325925926	148.457092592593	70	10.5	23.1	28
129.249	6.50399999999999	11	miss	499	0	223.644125925926	218.803355555555	212.567340740741	18	1.26	6.84	8.46
143.127	6.50799999999998	12	miss	550	0	196.804374074074	204.14227037037	170.654014814815	500	22.25	1.7	16.45
155.574	6.50399999999999	13	miss	55	0	210.184577777778	175.108888888889	166.413762962963	1100	34.1	116.6	310.2
165.822	4.00399999999999	14	valuation	516	3	246.259725925926	224.502585185185	202.23197037037	180	41.4	54	0
169.826	2.43299999999999	14	rating	516	3	246.259725925926	224.502585185185	202.23197037037	180	41.4	54	0
172.259	0	14	response	516	3	246.259725925926	224.502585185185	202.23197037037	180	41.4	54	0
172.259	0.5	14	feedback	516	3	246.259725925926	224.502585185185	202.23197037037	180	41.4	54	0
178.488	4.00800000000001	15	valuation	365	2	251.802366666667	224.585788888889	190.601740740741	340	2.448	0.476	22.508
182.496	1.316	15	rating	365	2	251.802366666667	224.585788888889	190.601740740741	340	2.448	0.476	22.508
183.812	0	15	response	365	2	251.802366666667	224.585788888889	190.601740740741	340	2.448	0.476	22.508
183.812	0.5	15	feedback	365	2	251.802366666667	224.585788888889	190.601740740741	340	2.448	0.476	22.508
188.724	4.05600000000001	16	valuation	420	1	220.88892962963	161.62427037037	161.309348148148	800	24.8	84.8	225.6
192.78	0.829000000000008	16	rating	420	1	220.88892962963	161.62427037037	161.309348148148	800	24.8	84.8	225.6
193.609	0	16	response	420	1	220.88892962963	161.62427037037	161.309348148148	800	24.8	84.8	225.6
193.609	0.5	16	feedback	420	1	220.88892962963	161.62427037037	161.309348148148	800	24.8	84.8	225.6
198.892	4.005	17	valuation	194	3	218.023318518519	218.78382962963	201.719222222222	50	0.435	0.275	4.685
202.897	1.202	17	rating	194	3	218.023318518519	218.78382962963	201.719222222222	50	0.435	0.275	4.685
204.099	0	17	response	194	3	218.023318518519	218.78382962963	201.719222222222	50	0.435	0.275	4.685
204.099	0.5	17	feedback	194	3	218.023318518519	218.78382962963	201.719222222222	50	0.435	0.275	4.685
207.423	4.00399999999999	18	valuation	47	1	234.398955555556	215.853603703704	189.506048148148	600	93.6	62.4	58.8
211.427	1.03200000000001	18	rating	47	1	234.398955555556	215.853603703704	189.506048148148	600	93.6	62.4	58.8
212.459	0	18	response	47	1	234.398955555556	215.853603703704	189.506048148148	600	93.6	62.4	58.8
212.459	0.5	18	feedback	47	1	234.398955555556	215.853603703704	189.506048148148	600	93.6	62.4	58.8
217.24	4.00399999999999	19	valuation	522	4	211.285055555556	209.573311111111	184.721655555556	320	4.48	0.48	7.2
221.244	1.798	19	rating	522	4	211.285055555556	209.573311111111	184.721655555556	320	4.48	0.48	7.2
223.042	0	19	response	522	4	211.285055555556	209.573311111111	184.721655555556	320	4.48	0.48	7.2
223.042	0.5	19	feedback	522	4	211.285055555556	209.573311111111	184.721655555556	320	4.48	0.48	7.2
230.292	6.50800000000001	20	miss	559	0	240.581651851852	219.021651851852	213.630103703704	400	104	60	4
240.394	6.505	21	miss	2	0	224.223055555555	209.635125925926	185.501751851852	360	54	54	50.4
248.947	6.56299999999999	22	miss	539	0	233.579448148148	215.357944444444	191.831003703704	80	17.36	40	7.52
259.638	6.50400000000002	23	miss	49	0	221.546081481481	209.746385185185	205.634555555556	240	8.4	45.6	69.6
269.617	6.505	24	miss	87	0	223.286288888889	209.11392962963	188.684481481482	236	28.32	28.32	33.04
279.337	4.00299999999999	25	valuation	205	1	234.69972962963	229.598588888889	221.566211111111	28	3.4608	0.2184	6.692
283.34	1.209	25	rating	205	1	234.69972962963	229.598588888889	221.566211111111	28	3.4608	0.2184	6.692
284.549	0	25	response	205	1	234.69972962963	229.598588888889	221.566211111111	28	3.4608	0.2184	6.692
284.549	0.5	25	feedback	205	1	234.69972962963	229.598588888889	221.566211111111	28	3.4608	0.2184	6.692
292.199	4.00700000000001	26	valuation	452	3	236.400237037037	207.367988888889	195.907403703704	1800	10.8	3.6	149.04
296.206	0.692999999999984	26	rating	452	3	236.400237037037	207.367988888889	195.907403703704	1800	10.8	3.6	149.04
296.899	0	26	response	452	3	236.400237037037	207.367988888889	195.907403703704	1800	10.8	3.6	149.04
296.899	0.5	26	feedback	452	3	236.400237037037	207.367988888889	195.907403703704	1800	10.8	3.6	149.04
302.583	6.50399999999996	27	miss	102	0	242.661011111111	243.689955555556	240.363340740741	100	1	0.3	95
316.613	6.50400000000002	28	miss	399	0	242.164122222222	236.682811111111	237.330162962963	20	0.18	0.06	2.66
331.145	6.50400000000002	29	miss	495	0	231.2935	207.667585185185	188.174859259259	1120	80.976	12.32	512.96
340.638	6.505	30	miss	234	0	220.932896296296	199.742540740741	191.633251851852	30	0.234	0.117	1.599
350.477	4.00400000000002	31	valuation	479	1	236.361074074074	206.875696296296	182.656537037037	175	0.6475	0.1225	3.0275
354.481	0.80400000000003	31	rating	479	1	236.361074074074	206.875696296296	182.656537037037	175	0.6475	0.1225	3.0275
355.285	0	31	response	479	1	236.361074074074	206.875696296296	182.656537037037	175	0.6475	0.1225	3.0275
355.285	0.5	31	feedback	479	1	236.361074074074	206.875696296296	182.656537037037	175	0.6475	0.1225	3.0275
360.858	6.505	32	miss	333	0	235.467907407407	238.388866666667	228.73257037037	180	1.62	0.54	15.3
374.609	4.00900000000001	33	valuation	266	2	236.431551851852	237.5085	229.194196296296	105	0.945	0.315	8.925
378.618	0.625	33	rating	266	2	236.431551851852	237.5085	229.194196296296	105	0.945	0.315	8.925
379.243	0	33	response	266	2	236.431551851852	237.5085	229.194196296296	105	0.945	0.315	8.925
379.243	0.5	33	feedback	266	2	236.431551851852	237.5085	229.194196296296	105	0.945	0.315	8.925
386.754	6.50399999999996	34	miss	178	0	239.681185185185	231.455796296296	222.511874074074	126	8.064	17.514	52.29
397.776	4.00399999999996	35	valuation	251	4	227.642211111111	230.778122222222	209.628088888889	1300	12.09	2.99	12.09
401.78	0.580000000000041	35	rating	251	4	227.642211111111	230.778122222222	209.628088888889	1300	12.09	2.99	12.09
402.36	0	35	response	251	4	227.642211111111	230.778122222222	209.628088888889	1300	12.09	2.99	12.09
402.36	0.5	35	feedback	251	4	227.642211111111	230.778122222222	209.628088888889	1300	12.09	2.99	12.09
405.964	4.00700000000001	36	valuation	530	4	226.327088888889	198.306133333333	186.79497037037	40	0.32	0.16	2.2
409.971	0.61099999999999	36	rating	530	4	226.327088888889	198.306133333333	186.79497037037	40	0.32	0.16	2.2
410.582	0	36	response	530	4	226.327088888889	198.306133333333	186.79497037037	40	0.32	0.16	2.2
410.582	0.5	36	feedback	530	4	226.327088888889	198.306133333333	186.79497037037	40	0.32	0.16	2.2
415.751	6.50400000000002	37	miss	514	0	233.642314814815	232.986755555556	225.940751851852	180	37.8	40.14	0.18
427.168	4.00400000000002	38	valuation	53	2	230.338377777778	209.626933333333	185.39507037037	115	10.5777	11.3735	30.23695
431.172	1.23899999999998	38	rating	53	2	230.338377777778	209.626933333333	185.39507037037	115	10.5777	11.3735	30.23695
432.411	0	38	response	53	2	230.338377777778	209.626933333333	185.39507037037	115	10.5777	11.3735	30.23695
432.411	0.5	38	feedback	53	2	230.338377777778	209.626933333333	185.39507037037	115	10.5777	11.3735	30.23695
435.235	4.005	39	valuation	258	3	240.773203703704	237.853218518519	230.853314814815	60	0.396	0.054	0.804
439.24	1.42199999999997	39	rating	258	3	240.773203703704	237.853218518519	230.853314814815	60	0.396	0.054	0.804
440.662	0	39	response	258	3	240.773203703704	237.853218518519	230.853314814815	60	0.396	0.054	0.804
440.662	0.5	39	feedback	258	3	240.773203703704	237.853218518519	230.853314814815	60	0.396	0.054	0.804
443.751	4.00300000000004	40	valuation	481	2	228.953885185185	223.616744444445	209.732762962963	70	4.13	5.159	20.727
447.754	0.577999999999975	40	rating	481	2	228.953885185185	223.616744444445	209.732762962963	70	4.13	5.159	20.727
448.332	0	40	response	481	2	228.953885185185	223.616744444445	209.732762962963	70	4.13	5.159	20.727
448.332	0.5	40	feedback	481	2	228.953885185185	223.616744444445	209.732762962963	70	4.13	5.159	20.727
454.915	4.00799999999998	41	valuation	22	4	238.318485185185	221.448785185185	186.011985185185	220	8.25	37.488	75.009
458.923	0.781999999999982	41	rating	22	4	238.318485185185	221.448785185185	186.011985185185	220	8.25	37.488	75.009
459.705	0	41	response	22	4	238.318485185185	221.448785185185	186.011985185185	220	8.25	37.488	75.009
459.705	0.5	41	feedback	22	4	238.318485185185	221.448785185185	186.011985185185	220	8.25	37.488	75.009
466.693	6.50400000000002	42	miss	466	0	222.330807407407	236.305674074074	172.409511111111	220	0.748	0	25.146
475.888	4.00400000000002	43	valuation	296	4	227.07772962963	224.495862962963	211.274185185185	35	1.463	7.308	24.843
479.892	0.802000000000021	43	rating	296	4	227.07772962963	224.495862962963	211.274185185185	35	1.463	7.308	24.843
480.694	0	43	response	296	4	227.07772962963	224.495862962963	211.274185185185	35	1.463	7.308	24.843
480.694	0.5	43	feedback	296	4	227.07772962963	224.495862962963	211.274185185185	35	1.463	7.308	24.843
485.209	6.50400000000002	44	miss	293	0	237.566888888889	228.382418518518	222.876903703704	15	1.0455	3.837	9.7665
493.891	4.005	45	valuation	168	1	234.105851851852	222.37312962963	215.18542962963	34	2.176	9.894	20.57
497.896	0.637	45	rating	168	1	234.105851851852	222.37312962963	215.18542962963	34	2.176	9.894	20.57
498.533	0	45	response	168	1	234.105851851852	222.37312962963	215.18542962963	34	2.176	9.894	20.57
498.533	0.5	45	feedback	168	1	234.105851851852	222.37312962963	215.18542962963	34	2.176	9.894	20.57
506.818	6.50800000000004	46	miss	153	0	235.75027037037	223.058911111111	215.043151851852	40	1.2	0	31.2
518.743	4.005	47	valuation	355	1	223.183255555556	202.252092592593	177.950788888889	1250	38.75	111.25	365
522.748	1.09100000000001	47	rating	355	1	223.183255555556	202.252092592593	177.950788888889	1250	38.75	111.25	365
523.839	0	47	response	355	1	223.183255555556	202.252092592593	177.950788888889	1250	38.75	111.25	365
523.839	0.5	47	feedback	355	1	223.183255555556	202.252092592593	177.950788888889	1250	38.75	111.25	365
