onset	duration	trial_id	trial_type	image_id	rating_value	red	green	blue	gram	protein	fat	carb
10.04	4.004	1	valuation	562	3	231.3686	211.666466666667	195.852359259259	300	66	15	0
14.044	0.645	1	rating	562	3	231.3686	211.666466666667	195.852359259259	300	66	15	0
14.689	0	1	response	562	3	231.3686	211.666466666667	195.852359259259	300	66	15	0
14.689	0.5	1	feedback	562	3	231.3686	211.666466666667	195.852359259259	300	66	15	0
20.752	4.005	2	valuation	500	1	224.335777777778	210.903914814815	203.253496296296	15	1.035	5.175	7.68
24.757	0.718999999999998	2	rating	500	1	224.335777777778	210.903914814815	203.253496296296	15	1.035	5.175	7.68
25.476	0	2	response	500	1	224.335777777778	210.903914814815	203.253496296296	15	1.035	5.175	7.68
25.476	0.5	2	feedback	500	1	224.335777777778	210.903914814815	203.253496296296	15	1.035	5.175	7.68
31.296	4.004	3	valuation	325	3	219.106851851852	207.999344444445	180.675533333333	150	0.9	0.45	17.4
35.3	0.644000000000005	3	rating	325	3	219.106851851852	207.999344444445	180.675533333333	150	0.9	0.45	17.4
35.944	0	3	response	325	3	219.106851851852	207.999344444445	180.675533333333	150	0.9	0.45	17.4
35.944	0.5	3	feedback	325	3	219.106851851852	207.999344444445	180.675533333333	150	0.9	0.45	17.4
43.774	4.003	4	valuation	425	2	232.791192592593	214.940514814815	198.185377777778	60	3.84	0.6	27.78
47.777	0.911000000000001	4	rating	425	2	232.791192592593	214.940514814815	198.185377777778	60	3.84	0.6	27.78
48.688	0	4	response	425	2	232.791192592593	214.940514814815	198.185377777778	60	3.84	0.6	27.78
48.688	0.5	4	feedback	425	2	232.791192592593	214.940514814815	198.185377777778	60	3.84	0.6	27.78
53.317	4.004	5	valuation	300	3	238.003896296296	224.160344444444	207.635792592593	500	35	16.7	238.5
57.321	0.649000000000001	5	rating	300	3	238.003896296296	224.160344444444	207.635792592593	500	35	16.7	238.5
57.97	0	5	response	300	3	238.003896296296	224.160344444444	207.635792592593	500	35	16.7	238.5
57.97	0.5	5	feedback	300	3	238.003896296296	224.160344444444	207.635792592593	500	35	16.7	238.5
62.339	4.004	6	valuation	202	3	200.061351851852	199.171555555556	199.325985185185	50	0.3	0.3	3.65
66.343	0.631	6	rating	202	3	200.061351851852	199.171555555556	199.325985185185	50	0.3	0.3	3.65
66.974	0	6	response	202	3	200.061351851852	199.171555555556	199.325985185185	50	0.3	0.3	3.65
66.974	0.5	6	feedback	202	3	200.061351851852	199.171555555556	199.325985185185	50	0.3	0.3	3.65
73.972	4.00500000000001	7	valuation	333	1	235.467907407407	238.388866666667	228.73257037037	180	1.62	0.54	15.3
77.977	1.387	7	rating	333	1	235.467907407407	238.388866666667	228.73257037037	180	1.62	0.54	15.3
79.364	0	7	response	333	1	235.467907407407	238.388866666667	228.73257037037	180	1.62	0.54	15.3
79.364	0.5	7	feedback	333	1	235.467907407407	238.388866666667	228.73257037037	180	1.62	0.54	15.3
87.539	4.006	8	valuation	341	3	243.643766666667	235.343803703704	207.559322222222	396	4.554	0.7128	84.7044
91.545	0.578999999999994	8	rating	341	3	243.643766666667	235.343803703704	207.559322222222	396	4.554	0.7128	84.7044
92.124	0	8	response	341	3	243.643766666667	235.343803703704	207.559322222222	396	4.554	0.7128	84.7044
92.124	0.5	8	feedback	341	3	243.643766666667	235.343803703704	207.559322222222	396	4.554	0.7128	84.7044
96.651	4.004	9	valuation	47	2	234.398955555556	215.853603703704	189.506048148148	600	93.6	62.4	58.8
100.655	0.566000000000003	9	rating	47	2	234.398955555556	215.853603703704	189.506048148148	600	93.6	62.4	58.8
101.221	0	9	response	47	2	234.398955555556	215.853603703704	189.506048148148	600	93.6	62.4	58.8
101.221	0.5	9	feedback	47	2	234.398955555556	215.853603703704	189.506048148148	600	93.6	62.4	58.8
103.914	4.004	10	valuation	133	2	234.072592592593	214.389285185185	203.67647037037	150	1.5	6	45
107.918	1.14	10	rating	133	2	234.072592592593	214.389285185185	203.67647037037	150	1.5	6	45
109.058	0	10	response	133	2	234.072592592593	214.389285185185	203.67647037037	150	1.5	6	45
109.058	0.5	10	feedback	133	2	234.072592592593	214.389285185185	203.67647037037	150	1.5	6	45
113.968	4.00399999999999	11	valuation	233	2	229.463418518519	202.517385185185	195.26052962963	650	5.85	1.3	16.055
117.972	0.751000000000005	11	rating	233	2	229.463418518519	202.517385185185	195.26052962963	650	5.85	1.3	16.055
118.723	0	11	response	233	2	229.463418518519	202.517385185185	195.26052962963	650	5.85	1.3	16.055
118.723	0.5	11	feedback	233	2	229.463418518519	202.517385185185	195.26052962963	650	5.85	1.3	16.055
122.691	4.00399999999999	12	valuation	388	1	251.513644444444	251.240011111111	248.662714814815	150	0.15	0	3.9
126.695	0.685000000000002	12	rating	388	1	251.513644444444	251.240011111111	248.662714814815	150	0.15	0	3.9
127.38	0	12	response	388	1	251.513644444444	251.240011111111	248.662714814815	150	0.15	0	3.9
127.38	0.5	12	feedback	388	1	251.513644444444	251.240011111111	248.662714814815	150	0.15	0	3.9
133.723	4.00399999999999	13	valuation	235	2	233.06632962963	208.093485185185	191.518381481481	640	4.608	0.896	42.368
137.727	0.688999999999993	13	rating	235	2	233.06632962963	208.093485185185	191.518381481481	640	4.608	0.896	42.368
138.416	0	13	response	235	2	233.06632962963	208.093485185185	191.518381481481	640	4.608	0.896	42.368
138.416	0.5	13	feedback	235	2	233.06632962963	208.093485185185	191.518381481481	640	4.608	0.896	42.368
146.819	4.01900000000001	14	valuation	274	1	216.618640740741	231.883585185185	202.364651851852	100	2.52	0.3	0.55
150.838	0.581000000000017	14	rating	274	1	216.618640740741	231.883585185185	202.364651851852	100	2.52	0.3	0.55
151.419	0	14	response	274	1	216.618640740741	231.883585185185	202.364651851852	100	2.52	0.3	0.55
151.419	0.5	14	feedback	274	1	216.618640740741	231.883585185185	202.364651851852	100	2.52	0.3	0.55
154.762	4.00399999999999	15	valuation	263	1	232.085611111111	221.1082	211.829974074074	118	2.5842	0.2242	0.531
158.766	0.713000000000022	15	rating	263	1	232.085611111111	221.1082	211.829974074074	118	2.5842	0.2242	0.531
159.479	0	15	response	263	1	232.085611111111	221.1082	211.829974074074	118	2.5842	0.2242	0.531
159.479	0.5	15	feedback	263	1	232.085611111111	221.1082	211.829974074074	118	2.5842	0.2242	0.531
166.99	4.00399999999999	16	valuation	383	2	228.460337037037	202.349562962963	171.075537037037	45	4.995	3.6	9.18
170.994	0.619	16	rating	383	2	228.460337037037	202.349562962963	171.075537037037	45	4.995	3.6	9.18
171.613	0	16	response	383	2	228.460337037037	202.349562962963	171.075537037037	45	4.995	3.6	9.18
171.613	0.5	16	feedback	383	2	228.460337037037	202.349562962963	171.075537037037	45	4.995	3.6	9.18
176.908	4.01900000000001	17	valuation	38	2	234.046337037037	225.745488888889	214.159877777778	120	5.316	11.52	26.064
180.927	0.861000000000018	17	rating	38	2	234.046337037037	225.745488888889	214.159877777778	120	5.316	11.52	26.064
181.788	0	17	response	38	2	234.046337037037	225.745488888889	214.159877777778	120	5.316	11.52	26.064
181.788	0.5	17	feedback	38	2	234.046337037037	225.745488888889	214.159877777778	120	5.316	11.52	26.064
190.093	4.00700000000001	18	valuation	83	1	221.303485185185	211.5066	207.337811111111	60	6	19.5	25.5
194.1	0.682000000000016	18	rating	83	1	221.303485185185	211.5066	207.337811111111	60	6	19.5	25.5
194.782	0	18	response	83	1	221.303485185185	211.5066	207.337811111111	60	6	19.5	25.5
194.782	0.5	18	feedback	83	1	221.303485185185	211.5066	207.337811111111	60	6	19.5	25.5
200.74	4.00399999999999	19	valuation	544	3	250.596337037037	210.284177777778	204.014044444444	150	29.4	9	0.15
204.744	0.717999999999989	19	rating	544	3	250.596337037037	210.284177777778	204.014044444444	150	29.4	9	0.15
205.462	0	19	response	544	3	250.596337037037	210.284177777778	204.014044444444	150	29.4	9	0.15
205.462	0.5	19	feedback	544	3	250.596337037037	210.284177777778	204.014044444444	150	29.4	9	0.15
210.602	4.00399999999999	20	valuation	490	2	238.84767037037	229.513007407407	193.213766666667	40	1	0.42	5.2
214.606	1.184	20	rating	490	2	238.84767037037	229.513007407407	193.213766666667	40	1	0.42	5.2
215.79	0	20	response	490	2	238.84767037037	229.513007407407	193.213766666667	40	1	0.42	5.2
215.79	0.5	20	feedback	490	2	238.84767037037	229.513007407407	193.213766666667	40	1	0.42	5.2
221.991	4.005	21	valuation	372	1	243.878866666667	227.843533333333	196.686544444444	40	3.6	1.4	29.6
225.996	0.762	21	rating	372	1	243.878866666667	227.843533333333	196.686544444444	40	3.6	1.4	29.6
226.758	0	21	response	372	1	243.878866666667	227.843533333333	196.686544444444	40	3.6	1.4	29.6
226.758	0.5	21	feedback	372	1	243.878866666667	227.843533333333	196.686544444444	40	3.6	1.4	29.6
233.493	4.005	22	valuation	8	4	230.364255555556	218.267518518519	205.17507037037	20	1.8	0.1	15.06
237.498	0.838999999999999	22	rating	8	4	230.364255555556	218.267518518519	205.17507037037	20	1.8	0.1	15.06
238.337	0	22	response	8	4	230.364255555556	218.267518518519	205.17507037037	20	1.8	0.1	15.06
238.337	0.5	22	feedback	8	4	230.364255555556	218.267518518519	205.17507037037	20	1.8	0.1	15.06
241.308	4.005	23	valuation	361	1	239.194337037037	196.791448148148	169.356607407407	150	1.95	0.3	7.8
245.313	0.723000000000013	23	rating	361	1	239.194337037037	196.791448148148	169.356607407407	150	1.95	0.3	7.8
246.036	0	23	response	361	1	239.194337037037	196.791448148148	169.356607407407	150	1.95	0.3	7.8
246.036	0.5	23	feedback	361	1	239.194337037037	196.791448148148	169.356607407407	150	1.95	0.3	7.8
248.843	4.00400000000002	24	valuation	246	1	223.636533333333	195.611785185185	185.338881481481	500	6.5	2.5	32
252.847	0.907999999999987	24	rating	246	1	223.636533333333	195.611785185185	185.338881481481	500	6.5	2.5	32
253.755	0	24	response	246	1	223.636533333333	195.611785185185	185.338881481481	500	6.5	2.5	32
253.755	0.5	24	feedback	246	1	223.636533333333	195.611785185185	185.338881481481	500	6.5	2.5	32
259.176	4.00400000000002	25	valuation	534	3	241.210433333333	235.60722962963	202.995262962963	130	1.04	0.546	16.38
263.18	0.714999999999975	25	rating	534	3	241.210433333333	235.60722962963	202.995262962963	130	1.04	0.546	16.38
263.895	0	25	response	534	3	241.210433333333	235.60722962963	202.995262962963	130	1.04	0.546	16.38
263.895	0.5	25	feedback	534	3	241.210433333333	235.60722962963	202.995262962963	130	1.04	0.546	16.38
270.502	4.00700000000001	26	valuation	430	1	215.593651851852	222.744125925926	185.890007407407	650	6.5	1.3	10.205
274.509	0.701999999999998	26	rating	430	1	215.593651851852	222.744125925926	185.890007407407	650	6.5	1.3	10.205
275.211	0	26	response	430	1	215.593651851852	222.744125925926	185.890007407407	650	6.5	1.3	10.205
275.211	0.5	26	feedback	430	1	215.593651851852	222.744125925926	185.890007407407	650	6.5	1.3	10.205
278.788	4.00399999999996	27	valuation	227	1	230.656755555556	218.651237037037	207.1778	150	7.5	3.15	43.2
282.792	0.88900000000001	27	rating	227	1	230.656755555556	218.651237037037	207.1778	150	7.5	3.15	43.2
283.681	0	27	response	227	1	230.656755555556	218.651237037037	207.1778	150	7.5	3.15	43.2
283.681	0.5	27	feedback	227	1	230.656755555556	218.651237037037	207.1778	150	7.5	3.15	43.2
289.345	4.00399999999996	28	valuation	492	2	230.247018518519	212.301574074074	191.626448148148	489	13.203	42.054	114.915
293.349	0.63900000000001	28	rating	492	2	230.247018518519	212.301574074074	191.626448148148	489	13.203	42.054	114.915
293.988	0	28	response	492	2	230.247018518519	212.301574074074	191.626448148148	489	13.203	42.054	114.915
293.988	0.5	28	feedback	492	2	230.247018518519	212.301574074074	191.626448148148	489	13.203	42.054	114.915
297.074	4.00399999999996	29	valuation	238	2	233.399692592593	229.266651851852	211.574737037037	450	1.395	1.8	51.3
301.078	0.672000000000025	29	rating	238	2	233.399692592593	229.266651851852	211.574737037037	450	1.395	1.8	51.3
301.75	0	29	response	238	2	233.399692592593	229.266651851852	211.574737037037	450	1.395	1.8	51.3
301.75	0.5	29	feedback	238	2	233.399692592593	229.266651851852	211.574737037037	450	1.395	1.8	51.3
310.312	4.00399999999996	30	valuation	7	3	231.251285185185	211.45102962963	195.076322222222	300	21.24	100.71	134.58
314.316	0.75	30	rating	7	3	231.251285185185	211.45102962963	195.076322222222	300	21.24	100.71	134.58
315.066	0	30	response	7	3	231.251285185185	211.45102962963	195.076322222222	300	21.24	100.71	134.58
315.066	0.5	30	feedback	7	3	231.251285185185	211.45102962963	195.076322222222	300	21.24	100.71	134.58
320.6	4.00899999999996	31	valuation	174	1	204.478103703704	191.206296296296	183.387344444444	100	8	36	46.5
324.609	1.09300000000002	31	rating	174	1	204.478103703704	191.206296296296	183.387344444444	100	8	36	46.5
325.702	0	31	response	174	1	204.478103703704	191.206296296296	183.387344444444	100	8	36	46.5
325.702	0.5	31	feedback	174	1	204.478103703704	191.206296296296	183.387344444444	100	8	36	46.5
333.345	4.00399999999996	32	valuation	23	3	229.752911111111	215.786466666667	200.357874074074	200	29.34	40.52	12.56
337.349	0.971000000000004	32	rating	23	3	229.752911111111	215.786466666667	200.357874074074	200	29.34	40.52	12.56
338.32	0	32	response	23	3	229.752911111111	215.786466666667	200.357874074074	200	29.34	40.52	12.56
338.32	0.5	32	feedback	23	3	229.752911111111	215.786466666667	200.357874074074	200	29.34	40.52	12.56
343.096	4.02100000000002	33	valuation	400	1	229.885137037037	211.631592592593	195.687888888889	160	8	24	64
347.117	0.663999999999987	33	rating	400	1	229.885137037037	211.631592592593	195.687888888889	160	8	24	64
347.781	0	33	response	400	1	229.885137037037	211.631592592593	195.687888888889	160	8	24	64
347.781	0.5	33	feedback	400	1	229.885137037037	211.631592592593	195.687888888889	160	8	24	64
354.645	4.005	34	valuation	229	2	215.630496296296	207.42947037037	184.50462962963	130	2.249	0.455	4.55
358.65	1.351	34	rating	229	2	215.630496296296	207.42947037037	184.50462962963	130	2.249	0.455	4.55
360.001	0	34	response	229	2	215.630496296296	207.42947037037	184.50462962963	130	2.249	0.455	4.55
360.001	0.5	34	feedback	229	2	215.630496296296	207.42947037037	184.50462962963	130	2.249	0.455	4.55
366.481	4.00799999999998	35	valuation	447	2	212.686603703704	211.018374074074	167.308322222222	130	4.29	0.546	12.064
370.489	0.75200000000001	35	rating	447	2	212.686603703704	211.018374074074	167.308322222222	130	4.29	0.546	12.064
371.241	0	35	response	447	2	212.686603703704	211.018374074074	167.308322222222	130	4.29	0.546	12.064
371.241	0.5	35	feedback	447	2	212.686603703704	211.018374074074	167.308322222222	130	4.29	0.546	12.064
376.279	4.00400000000002	36	valuation	497	1	235.62327037037	212.055107407407	196.81682962963	60	12.48	13.08	0.54
380.283	0.750999999999976	36	rating	497	1	235.62327037037	212.055107407407	196.81682962963	60	12.48	13.08	0.54
381.034	0	36	response	497	1	235.62327037037	212.055107407407	196.81682962963	60	12.48	13.08	0.54
381.034	0.5	36	feedback	497	1	235.62327037037	212.055107407407	196.81682962963	60	12.48	13.08	0.54
388.291	4.00400000000002	37	valuation	504	1	237.865848148148	215.573244444445	178.105	10	0.57	3.07	5.73
392.295	0.668999999999983	37	rating	504	1	237.865848148148	215.573244444445	178.105	10	0.57	3.07	5.73
392.964	0	37	response	504	1	237.865848148148	215.573244444445	178.105	10	0.57	3.07	5.73
392.964	0.5	37	feedback	504	1	237.865848148148	215.573244444445	178.105	10	0.57	3.07	5.73
400.089	4.005	38	valuation	199	1	244.756914814815	225.456751851852	215.303337037037	300	0.78	0.27	10.92
404.094	0.605999999999995	38	rating	199	1	244.756914814815	225.456751851852	215.303337037037	300	0.78	0.27	10.92
404.7	0	38	response	199	1	244.756914814815	225.456751851852	215.303337037037	300	0.78	0.27	10.92
404.7	0.5	38	feedback	199	1	244.756914814815	225.456751851852	215.303337037037	300	0.78	0.27	10.92
408.836	4.01999999999998	39	valuation	310	2	242.471503703704	215.496444444444	180.650911111111	65	9.1455	2.548	34.099
412.856	0.72199999999998	39	rating	310	2	242.471503703704	215.496444444444	180.650911111111	65	9.1455	2.548	34.099
413.578	0	39	response	310	2	242.471503703704	215.496444444444	180.650911111111	65	9.1455	2.548	34.099
413.578	0.5	39	feedback	310	2	242.471503703704	215.496444444444	180.650911111111	65	9.1455	2.548	34.099
416.149	4.005	40	valuation	209	3	194.382207407407	176.692622222222	173.605392592593	150	1.5	0.75	9
420.154	0.752999999999986	40	rating	209	3	194.382207407407	176.692622222222	173.605392592593	150	1.5	0.75	9
420.907	0	40	response	209	3	194.382207407407	176.692622222222	173.605392592593	150	1.5	0.75	9
420.907	0.5	40	feedback	209	3	194.382207407407	176.692622222222	173.605392592593	150	1.5	0.75	9
424.745	4.00400000000002	41	valuation	330	4	238.498125925926	234.545148148148	229.275044444444	200	6	2	6
428.749	1.75799999999998	41	rating	330	4	238.498125925926	234.545148148148	229.275044444444	200	6	2	6
430.507	0	41	response	330	4	238.498125925926	234.545148148148	229.275044444444	200	6	2	6
430.507	0.5	41	feedback	330	4	238.498125925926	234.545148148148	229.275044444444	200	6	2	6
434.247	4.00399999999996	42	valuation	175	2	245.393781481482	241.954911111111	226.525148148148	150	25.5	48.75	1.5
438.251	0.838999999999999	42	rating	175	2	245.393781481482	241.954911111111	226.525148148148	150	25.5	48.75	1.5
439.09	0	42	response	175	2	245.393781481482	241.954911111111	226.525148148148	150	25.5	48.75	1.5
439.09	0.5	42	feedback	175	2	245.393781481482	241.954911111111	226.525148148148	150	25.5	48.75	1.5
442.317	4.005	43	valuation	6	3	241.700688888889	234.822918518519	227.331188888889	150	13.545	19.005	42.045
446.322	0.603999999999985	43	rating	6	3	241.700688888889	234.822918518519	227.331188888889	150	13.545	19.005	42.045
446.926	0	43	response	6	3	241.700688888889	234.822918518519	227.331188888889	150	13.545	19.005	42.045
446.926	0.5	43	feedback	6	3	241.700688888889	234.822918518519	227.331188888889	150	13.545	19.005	42.045
454.817	4.00400000000002	44	valuation	533	2	243.899425925926	223.493911111111	174.903544444444	20	1	6.4	7.4
458.821	0.642999999999972	44	rating	533	2	243.899425925926	223.493911111111	174.903544444444	20	1	6.4	7.4
459.464	0	44	response	533	2	243.899425925926	223.493911111111	174.903544444444	20	1	6.4	7.4
459.464	0.5	44	feedback	533	2	243.899425925926	223.493911111111	174.903544444444	20	1	6.4	7.4
462.931	4.00400000000002	45	valuation	461	2	216.267459259259	210.025503703704	199.451151851852	1943	34.3911	4.6632	46.4377
466.935	0.940999999999974	45	rating	461	2	216.267459259259	210.025503703704	199.451151851852	1943	34.3911	4.6632	46.4377
467.876	0	45	response	461	2	216.267459259259	210.025503703704	199.451151851852	1943	34.3911	4.6632	46.4377
467.876	0.5	45	feedback	461	2	216.267459259259	210.025503703704	199.451151851852	1943	34.3911	4.6632	46.4377
475.258	4.00400000000002	46	valuation	435	2	210.431696296296	216.182181481482	193.747059259259	385	17.1325	1.309	12.6665
479.262	0.927000000000021	46	rating	435	2	210.431696296296	216.182181481482	193.747059259259	385	17.1325	1.309	12.6665
480.189	0	46	response	435	2	210.431696296296	216.182181481482	193.747059259259	385	17.1325	1.309	12.6665
480.189	0.5	46	feedback	435	2	210.431696296296	216.182181481482	193.747059259259	385	17.1325	1.309	12.6665
484.42	4.00399999999996	47	valuation	183	1	246.500262962963	230.846933333333	212.079162962963	75	18.75	37.5	10.5
488.424	0.763000000000034	47	rating	183	1	246.500262962963	230.846933333333	212.079162962963	75	18.75	37.5	10.5
489.187	0	47	response	183	1	246.500262962963	230.846933333333	212.079162962963	75	18.75	37.5	10.5
489.187	0.5	47	feedback	183	1	246.500262962963	230.846933333333	212.079162962963	75	18.75	37.5	10.5
