onset	duration	trial_id	trial_type	image_id	rating_value	red	green	blue	gram	protein	fat	carb
10.018	4.013	1	valuation	62	3	231.827648148148	219.497414814815	207.432437037037	70	6.195	2.1	36.33
14.031	0.792999999999999	1	rating	62	3	231.827648148148	219.497414814815	207.432437037037	70	6.195	2.1	36.33
14.824	0	1	response	62	3	231.827648148148	219.497414814815	207.432437037037	70	6.195	2.1	36.33
14.824	0.5	1	feedback	62	3	231.827648148148	219.497414814815	207.432437037037	70	6.195	2.1	36.33
17.917	4.004	2	valuation	535	1	243.583762962963	217.425462962963	203.9945	100	13.5	16	0.5
21.921	0.591000000000001	2	rating	535	1	243.583762962963	217.425462962963	203.9945	100	13.5	16	0.5
22.512	0	2	response	535	1	243.583762962963	217.425462962963	203.9945	100	13.5	16	0.5
22.512	0.5	2	feedback	535	1	243.583762962963	217.425462962963	203.9945	100	13.5	16	0.5
26.769	4.01	3	valuation	301	3	218.722792592593	191.507796296296	170.340588888889	300	66	18.3	0
30.779	0.602	3	rating	301	3	218.722792592593	191.507796296296	170.340588888889	300	66	18.3	0
31.381	0	3	response	301	3	218.722792592593	191.507796296296	170.340588888889	300	66	18.3	0
31.381	0.5	3	feedback	301	3	218.722792592593	191.507796296296	170.340588888889	300	66	18.3	0
35.942	4.004	4	valuation	248	3	224.806459259259	224.496444444444	225.375659259259	60	0.36	0.36	4.38
39.946	0.526000000000003	4	rating	248	3	224.806459259259	224.496444444444	225.375659259259	60	0.36	0.36	4.38
40.472	0	4	response	248	3	224.806459259259	224.496444444444	225.375659259259	60	0.36	0.36	4.38
40.472	0.5	4	feedback	248	3	224.806459259259	224.496444444444	225.375659259259	60	0.36	0.36	4.38
46.657	4.004	5	valuation	26	3	240.671822222222	218.454088888889	165.623814814815	34	1.8632	11.9	16.32
50.661	0.623999999999995	5	rating	26	3	240.671822222222	218.454088888889	165.623814814815	34	1.8632	11.9	16.32
51.285	0	5	response	26	3	240.671822222222	218.454088888889	165.623814814815	34	1.8632	11.9	16.32
51.285	0.5	5	feedback	26	3	240.671822222222	218.454088888889	165.623814814815	34	1.8632	11.9	16.32
58.668	4.004	6	valuation	407	3	195.021214814815	188.857881481481	188.417781481481	40	0.48	0.4	1.08
62.672	0.672000000000004	6	rating	407	3	195.021214814815	188.857881481481	188.417781481481	40	0.48	0.4	1.08
63.344	0	6	response	407	3	195.021214814815	188.857881481481	188.417781481481	40	0.48	0.4	1.08
63.344	0.5	6	feedback	407	3	195.021214814815	188.857881481481	188.417781481481	40	0.48	0.4	1.08
71.629	4.006	7	valuation	389	1	236.718166666667	231.179922222222	208.921581481481	1200	10.8	3.6	100.8
75.635	0.780999999999992	7	rating	389	1	236.718166666667	231.179922222222	208.921581481481	1200	10.8	3.6	100.8
76.416	0	7	response	389	1	236.718166666667	231.179922222222	208.921581481481	1200	10.8	3.6	100.8
76.416	0.5	7	feedback	389	1	236.718166666667	231.179922222222	208.921581481481	1200	10.8	3.6	100.8
83.66	4.00500000000001	8	valuation	108	3	236.901259259259	214.991218518518	189.073674074074	550	36.025	31.02	116.985
87.665	0.786999999999992	8	rating	108	3	236.901259259259	214.991218518518	189.073674074074	550	36.025	31.02	116.985
88.452	0	8	response	108	3	236.901259259259	214.991218518518	189.073674074074	550	36.025	31.02	116.985
88.452	0.5	8	feedback	108	3	236.901259259259	214.991218518518	189.073674074074	550	36.025	31.02	116.985
91.807	4.004	9	valuation	75	2	229.091818518519	210.880277777778	195.231822222222	240	19.008	12	45.984
95.811	0.646999999999991	9	rating	75	2	229.091818518519	210.880277777778	195.231822222222	240	19.008	12	45.984
96.458	0	9	response	75	2	229.091818518519	210.880277777778	195.231822222222	240	19.008	12	45.984
96.458	0.5	9	feedback	75	2	229.091818518519	210.880277777778	195.231822222222	240	19.008	12	45.984
99.914	4.017	10	valuation	282	2	248.5747	242.486874074074	227.301066666667	200	2	0.24	28.6
103.931	0.811999999999998	10	rating	282	2	248.5747	242.486874074074	227.301066666667	200	2	0.24	28.6
104.743	0	10	response	282	2	248.5747	242.486874074074	227.301066666667	200	2	0.24	28.6
104.743	0.5	10	feedback	282	2	248.5747	242.486874074074	227.301066666667	200	2	0.24	28.6
112.791	4.006	11	valuation	139	2	221.89862962963	214.391892592593	207.001503703704	100	6.2	20.7	33.3
116.797	0.942999999999998	11	rating	139	2	221.89862962963	214.391892592593	207.001503703704	100	6.2	20.7	33.3
117.74	0	11	response	139	2	221.89862962963	214.391892592593	207.001503703704	100	6.2	20.7	33.3
117.74	0.5	11	feedback	139	2	221.89862962963	214.391892592593	207.001503703704	100	6.2	20.7	33.3
124.475	4.017	12	valuation	30	3	231.086585185185	212.687988888889	188.667337037037	900	155.61	73.26	33.3
128.492	0.655000000000001	12	rating	30	3	231.086585185185	212.687988888889	188.667337037037	900	155.61	73.26	33.3
129.147	0	12	response	30	3	231.086585185185	212.687988888889	188.667337037037	900	155.61	73.26	33.3
129.147	0.5	12	feedback	30	3	231.086585185185	212.687988888889	188.667337037037	900	155.61	73.26	33.3
132.104	4.00399999999999	13	valuation	291	1	246.073059259259	241.529374074074	239.66687037037	11	0.44	3.5431	5.885
136.108	0.643000000000001	13	rating	291	1	246.073059259259	241.529374074074	239.66687037037	11	0.44	3.5431	5.885
136.751	0	13	response	291	1	246.073059259259	241.529374074074	239.66687037037	11	0.44	3.5431	5.885
136.751	0.5	13	feedback	291	1	246.073059259259	241.529374074074	239.66687037037	11	0.44	3.5431	5.885
141.655	4.00800000000001	14	valuation	314	2	233.865662962963	212.069914814815	199.556859259259	320	20.48	5.184	33.824
145.663	1.10599999999999	14	rating	314	2	233.865662962963	212.069914814815	199.556859259259	320	20.48	5.184	33.824
146.769	0	14	response	314	2	233.865662962963	212.069914814815	199.556859259259	320	20.48	5.184	33.824
146.769	0.5	14	feedback	314	2	233.865662962963	212.069914814815	199.556859259259	320	20.48	5.184	33.824
150.479	4.01499999999999	15	valuation	452	1	236.400237037037	207.367988888889	195.907403703704	1800	10.8	3.6	149.04
154.494	0.675999999999988	15	rating	452	1	236.400237037037	207.367988888889	195.907403703704	1800	10.8	3.6	149.04
155.17	0	15	response	452	1	236.400237037037	207.367988888889	195.907403703704	1800	10.8	3.6	149.04
155.17	0.5	15	feedback	452	1	236.400237037037	207.367988888889	195.907403703704	1800	10.8	3.6	149.04
158.783	4.00300000000001	16	valuation	448	1	219.915374074074	211.722248148148	200.2025	180	1.89	0.252	3.834
162.786	0.527999999999992	16	rating	448	1	219.915374074074	211.722248148148	200.2025	180	1.89	0.252	3.834
163.314	0	16	response	448	1	219.915374074074	211.722248148148	200.2025	180	1.89	0.252	3.834
163.314	0.5	16	feedback	448	1	219.915374074074	211.722248148148	200.2025	180	1.89	0.252	3.834
171.085	4.00999999999999	17	valuation	498	1	238.902148148148	210.754192592593	192.474385185185	60	10.74	15.06	0.66
175.095	0.972000000000008	17	rating	498	1	238.902148148148	210.754192592593	192.474385185185	60	10.74	15.06	0.66
176.067	0	17	response	498	1	238.902148148148	210.754192592593	192.474385185185	60	10.74	15.06	0.66
176.067	0.5	17	feedback	498	1	238.902148148148	210.754192592593	192.474385185185	60	10.74	15.06	0.66
182.415	4.005	18	valuation	519	2	236.281544444444	236.0805	224.433962962963	50	10.5	11.15	0.05
186.42	0.693000000000012	18	rating	519	2	236.281544444444	236.0805	224.433962962963	50	10.5	11.15	0.05
187.113	0	18	response	519	2	236.281544444444	236.0805	224.433962962963	50	10.5	11.15	0.05
187.113	0.5	18	feedback	519	2	236.281544444444	236.0805	224.433962962963	50	10.5	11.15	0.05
192.424	4.00399999999999	19	valuation	503	1	241.178181481481	220.964318518518	182.183774074074	60	3.42	18.42	34.38
196.428	0.634999999999991	19	rating	503	1	241.178181481481	220.964318518518	182.183774074074	60	3.42	18.42	34.38
197.063	0	19	response	503	1	241.178181481481	220.964318518518	182.183774074074	60	3.42	18.42	34.38
197.063	0.5	19	feedback	503	1	241.178181481481	220.964318518518	182.183774074074	60	3.42	18.42	34.38
203.534	4.00700000000001	20	valuation	540	3	223.916451851852	169.149040740741	168.88347037037	300	60	9	3
207.541	0.960000000000008	20	rating	540	3	223.916451851852	169.149040740741	168.88347037037	300	60	9	3
208.501	0	20	response	540	3	223.916451851852	169.149040740741	168.88347037037	300	60	9	3
208.501	0.5	20	feedback	540	3	223.916451851852	169.149040740741	168.88347037037	300	60	9	3
211.185	4.00399999999999	21	valuation	171	2	225.838885185185	222.008844444444	220.679944444444	19.5	0.585	1.95	13.455
215.189	0.689999999999998	21	rating	171	2	225.838885185185	222.008844444444	220.679944444444	19.5	0.585	1.95	13.455
215.879	0	21	response	171	2	225.838885185185	222.008844444444	220.679944444444	19.5	0.585	1.95	13.455
215.879	0.5	21	feedback	171	2	225.838885185185	222.008844444444	220.679944444444	19.5	0.585	1.95	13.455
221.967	4.005	22	valuation	198	1	223.65782962963	215.853659259259	190.91702962963	500	6.1	1.85	24.35
225.972	0.634999999999991	22	rating	198	1	223.65782962963	215.853659259259	190.91702962963	500	6.1	1.85	24.35
226.607	0	22	response	198	1	223.65782962963	215.853659259259	190.91702962963	500	6.1	1.85	24.35
226.607	0.5	22	feedback	198	1	223.65782962963	215.853659259259	190.91702962963	500	6.1	1.85	24.35
229.143	4.00399999999999	23	valuation	317	3	217.140840740741	199.142059259259	168.9495	150	4.05	3.3	38.25
233.147	0.569000000000017	23	rating	317	3	217.140840740741	199.142059259259	168.9495	150	4.05	3.3	38.25
233.716	0	23	response	317	3	217.140840740741	199.142059259259	168.9495	150	4.05	3.3	38.25
233.716	0.5	23	feedback	317	3	217.140840740741	199.142059259259	168.9495	150	4.05	3.3	38.25
237.821	4.00399999999999	24	valuation	344	1	213.3786	188.994266666667	172.751907407407	72.4	3.5476	19.06292	38.19824
241.825	0.533000000000015	24	rating	344	1	213.3786	188.994266666667	172.751907407407	72.4	3.5476	19.06292	38.19824
242.358	0	24	response	344	1	213.3786	188.994266666667	172.751907407407	72.4	3.5476	19.06292	38.19824
242.358	0.5	24	feedback	344	1	213.3786	188.994266666667	172.751907407407	72.4	3.5476	19.06292	38.19824
249.352	4.00700000000001	25	valuation	507	2	233.177322222222	203.979048148148	156.710403703704	115	5.405	26.68	49.335
253.359	0.679000000000002	25	rating	507	2	233.177322222222	203.979048148148	156.710403703704	115	5.405	26.68	49.335
254.038	0	25	response	507	2	233.177322222222	203.979048148148	156.710403703704	115	5.405	26.68	49.335
254.038	0.5	25	feedback	507	2	233.177322222222	203.979048148148	156.710403703704	115	5.405	26.68	49.335
259.988	4.00400000000002	26	valuation	421	2	235.056318518519	197.617114814815	196.365037037037	120	3.72	12.72	33.84
263.992	0.663999999999987	26	rating	421	2	235.056318518519	197.617114814815	196.365037037037	120	3.72	12.72	33.84
264.656	0	26	response	421	2	235.056318518519	197.617114814815	196.365037037037	120	3.72	12.72	33.84
264.656	0.5	26	feedback	421	2	235.056318518519	197.617114814815	196.365037037037	120	3.72	12.72	33.84
268.656	4.00400000000002	27	valuation	523	1	231.052318518518	216.852922222222	206.370418518518	160	8	24	64
272.66	0.974999999999966	27	rating	523	1	231.052318518518	216.852922222222	206.370418518518	160	8	24	64
273.635	0	27	response	523	1	231.052318518518	216.852922222222	206.370418518518	160	8	24	64
273.635	0.5	27	feedback	523	1	231.052318518518	216.852922222222	206.370418518518	160	8	24	64
279.451	4.00599999999997	28	valuation	61	3	217.738881481481	194.702925925926	183.2717	550	36.025	31.02	116.985
283.457	0.494000000000028	28	rating	61	3	217.738881481481	194.702925925926	183.2717	550	36.025	31.02	116.985
283.951	0	28	response	61	3	217.738881481481	194.702925925926	183.2717	550	36.025	31.02	116.985
283.951	0.5	28	feedback	61	3	217.738881481481	194.702925925926	183.2717	550	36.025	31.02	116.985
286.776	4.00399999999996	29	valuation	318	3	237.55152962963	224.783759259259	215.41777037037	197	24.822	35.854	18.124
290.78	0.815000000000055	29	rating	318	3	237.55152962963	224.783759259259	215.41777037037	197	24.822	35.854	18.124
291.595	0	29	response	318	3	237.55152962963	224.783759259259	215.41777037037	197	24.822	35.854	18.124
291.595	0.5	29	feedback	318	3	237.55152962963	224.783759259259	215.41777037037	197	24.822	35.854	18.124
300.034	4.00900000000001	30	valuation	149	3	225.942218518519	180.648325925926	148.457092592593	70	10.5	23.1	28
304.043	0.61099999999999	30	rating	149	3	225.942218518519	180.648325925926	148.457092592593	70	10.5	23.1	28
304.654	0	30	response	149	3	225.942218518519	180.648325925926	148.457092592593	70	10.5	23.1	28
304.654	0.5	30	feedback	149	3	225.942218518519	180.648325925926	148.457092592593	70	10.5	23.1	28
310.223	4.00399999999996	31	valuation	338	1	221.165081481481	207.295811111111	204.795507407407	120	4.32	2.52	89.28
314.227	0.922000000000025	31	rating	338	1	221.165081481481	207.295811111111	204.795507407407	120	4.32	2.52	89.28
315.149	0	31	response	338	1	221.165081481481	207.295811111111	204.795507407407	120	4.32	2.52	89.28
315.149	0.5	31	feedback	338	1	221.165081481481	207.295811111111	204.795507407407	120	4.32	2.52	89.28
319.786	4.00400000000002	32	valuation	237	3	244.841388888889	243.758411111111	238.652048148148	350	31.15	35	13.3
323.79	0.588999999999999	32	rating	237	3	244.841388888889	243.758411111111	238.652048148148	350	31.15	35	13.3
324.379	0	32	response	237	3	244.841388888889	243.758411111111	238.652048148148	350	31.15	35	13.3
324.379	0.5	32	feedback	237	3	244.841388888889	243.758411111111	238.652048148148	350	31.15	35	13.3
331.899	4.00999999999999	33	valuation	481	3	228.953885185185	223.616744444445	209.732762962963	70	4.13	5.159	20.727
335.909	0.585000000000036	33	rating	481	3	228.953885185185	223.616744444445	209.732762962963	70	4.13	5.159	20.727
336.494	0	33	response	481	3	228.953885185185	223.616744444445	209.732762962963	70	4.13	5.159	20.727
336.494	0.5	33	feedback	481	3	228.953885185185	223.616744444445	209.732762962963	70	4.13	5.159	20.727
343.617	4.005	34	valuation	495	2	231.2935	207.667585185185	188.174859259259	1120	80.976	12.32	512.96
347.622	0.522999999999968	34	rating	495	2	231.2935	207.667585185185	188.174859259259	1120	80.976	12.32	512.96
348.145	0	34	response	495	2	231.2935	207.667585185185	188.174859259259	1120	80.976	12.32	512.96
348.145	0.5	34	feedback	495	2	231.2935	207.667585185185	188.174859259259	1120	80.976	12.32	512.96
356.708	4.01399999999995	35	valuation	517	3	246.386655555556	237.275566666667	210.835722222222	150	40.5	48	0
360.722	0.661000000000001	35	rating	517	3	246.386655555556	237.275566666667	210.835722222222	150	40.5	48	0
361.383	0	35	response	517	3	246.386655555556	237.275566666667	210.835722222222	150	40.5	48	0
361.383	0.5	35	feedback	517	3	246.386655555556	237.275566666667	210.835722222222	150	40.5	48	0
366.801	4.005	36	valuation	216	2	228.954881481481	203.75372962963	184.151355555556	300	2.49	0.27	34.23
370.806	0.686000000000035	36	rating	216	2	228.954881481481	203.75372962963	184.151355555556	300	2.49	0.27	34.23
371.492	0	36	response	216	2	228.954881481481	203.75372962963	184.151355555556	300	2.49	0.27	34.23
371.492	0.5	36	feedback	216	2	228.954881481481	203.75372962963	184.151355555556	300	2.49	0.27	34.23
376.65	4.00300000000004	37	valuation	381	1	251.941503703704	234.23952962963	191.668296296296	500	61.7	13.9	341.45
380.653	0.579999999999984	37	rating	381	1	251.941503703704	234.23952962963	191.668296296296	500	61.7	13.9	341.45
381.233	0	37	response	381	1	251.941503703704	234.23952962963	191.668296296296	500	61.7	13.9	341.45
381.233	0.5	37	feedback	381	1	251.941503703704	234.23952962963	191.668296296296	500	61.7	13.9	341.45
388.883	4.00700000000001	38	valuation	454	2	219.902148148148	220.933455555556	200.841318518518	450	1.8	0.9	55.8
392.89	1.11000000000001	38	rating	454	2	219.902148148148	220.933455555556	200.841318518518	450	1.8	0.9	55.8
394	0	38	response	454	2	219.902148148148	220.933455555556	200.841318518518	450	1.8	0.9	55.8
394	0.5	38	feedback	454	2	219.902148148148	220.933455555556	200.841318518518	450	1.8	0.9	55.8
398.784	4.00400000000002	39	valuation	100	2	212.79622962963	209.737725925926	209.198748148148	1200	55.2	228	343.2
402.788	0.642999999999972	39	rating	100	2	212.79622962963	209.737725925926	209.198748148148	1200	55.2	228	343.2
403.431	0	39	response	100	2	212.79622962963	209.737725925926	209.198748148148	1200	55.2	228	343.2
403.431	0.5	39	feedback	100	2	212.79622962963	209.737725925926	209.198748148148	1200	55.2	228	343.2
411.334	4.00400000000002	40	valuation	491	1	246.126614814815	236.71137037037	228.555840740741	350	10.255	28	106.61
415.338	0.656999999999982	40	rating	491	1	246.126614814815	236.71137037037	228.555840740741	350	10.255	28	106.61
415.995	0	40	response	491	1	246.126614814815	236.71137037037	228.555840740741	350	10.255	28	106.61
415.995	0.5	40	feedback	491	1	246.126614814815	236.71137037037	228.555840740741	350	10.255	28	106.61
420.385	4.00400000000002	41	valuation	316	3	229.776314814815	226.610340740741	214.930022222222	400	15.6	16.4	44
424.389	0.716000000000008	41	rating	316	3	229.776314814815	226.610340740741	214.930022222222	400	15.6	16.4	44
425.105	0	41	response	316	3	229.776314814815	226.610340740741	214.930022222222	400	15.6	16.4	44
425.105	0.5	41	feedback	316	3	229.776314814815	226.610340740741	214.930022222222	400	15.6	16.4	44
431.988	4.005	42	valuation	436	1	242.090233333333	230.336774074074	170.7118	85	0.85	0.255	5.695
435.993	0.581000000000017	42	rating	436	1	242.090233333333	230.336774074074	170.7118	85	0.85	0.255	5.695
436.574	0	42	response	436	1	242.090233333333	230.336774074074	170.7118	85	0.85	0.255	5.695
436.574	0.5	42	feedback	436	1	242.090233333333	230.336774074074	170.7118	85	0.85	0.255	5.695
440.44	4.00400000000002	43	valuation	315	3	234.732062962963	205.436585185185	188.322903703704	120	16.476	4.992	2.82
444.444	0.546999999999969	43	rating	315	3	234.732062962963	205.436585185185	188.322903703704	120	16.476	4.992	2.82
444.991	0	43	response	315	3	234.732062962963	205.436585185185	188.322903703704	120	16.476	4.992	2.82
444.991	0.5	43	feedback	315	3	234.732062962963	205.436585185185	188.322903703704	120	16.476	4.992	2.82
450.03	4.00400000000002	44	valuation	558	2	228.833588888889	226.905788888889	218.695348148148	560	6.72	4.144	11.2
454.034	1.178	44	rating	558	2	228.833588888889	226.905788888889	218.695348148148	560	6.72	4.144	11.2
455.212	0	44	response	558	2	228.833588888889	226.905788888889	218.695348148148	560	6.72	4.144	11.2
455.212	0.5	44	feedback	558	2	228.833588888889	226.905788888889	218.695348148148	560	6.72	4.144	11.2
463.353	4.005	45	valuation	48	2	225.469518518518	207.606522222222	178.779862962963	320	25.088	36.992	119.392
467.358	0.627999999999986	45	rating	48	2	225.469518518518	207.606522222222	178.779862962963	320	25.088	36.992	119.392
467.986	0	45	response	48	2	225.469518518518	207.606522222222	178.779862962963	320	25.088	36.992	119.392
467.986	0.5	45	feedback	48	2	225.469518518518	207.606522222222	178.779862962963	320	25.088	36.992	119.392
474.603	4.01900000000001	46	valuation	187	3	243.599374074074	219.512066666667	207.100203703704	70	3.64	13.16	25.13
478.622	0.61099999999999	46	rating	187	3	243.599374074074	219.512066666667	207.100203703704	70	3.64	13.16	25.13
479.233	0	46	response	187	3	243.599374074074	219.512066666667	207.100203703704	70	3.64	13.16	25.13
479.233	0.5	46	feedback	187	3	243.599374074074	219.512066666667	207.100203703704	70	3.64	13.16	25.13
484.897	4.00299999999999	47	valuation	323	2	228.088137037037	220.723218518519	203.94212962963	377	54.0995	22.0168	19.4909
488.9	0.798000000000002	47	rating	323	2	228.088137037037	220.723218518519	203.94212962963	377	54.0995	22.0168	19.4909
489.698	0	47	response	323	2	228.088137037037	220.723218518519	203.94212962963	377	54.0995	22.0168	19.4909
489.698	0.5	47	feedback	323	2	228.088137037037	220.723218518519	203.94212962963	377	54.0995	22.0168	19.4909
