onset	duration	trial_id	trial_type	image_id	rating_value	red	green	blue	gram	protein	fat	carb
10.044	4.005	1	valuation	304	2	243.904940740741	229.072385185185	192.886733333333	400	8	22.8	44.8
14.049	0.592000000000001	1	rating	304	2	243.904940740741	229.072385185185	192.886733333333	400	8	22.8	44.8
14.641	0	1	response	304	2	243.904940740741	229.072385185185	192.886733333333	400	8	22.8	44.8
14.641	0.5	1	feedback	304	2	243.904940740741	229.072385185185	192.886733333333	400	8	22.8	44.8
18.094	4.004	2	valuation	220	3	232.438803703704	218.037377777778	193.591122222222	900	7.47	1.71	75.24
22.098	0.694000000000003	2	rating	220	3	232.438803703704	218.037377777778	193.591122222222	900	7.47	1.71	75.24
22.792	0	2	response	220	3	232.438803703704	218.037377777778	193.591122222222	900	7.47	1.71	75.24
22.792	0.5	2	feedback	220	3	232.438803703704	218.037377777778	193.591122222222	900	7.47	1.71	75.24
25.609	4.005	3	valuation	411	1	211.580766666667	201.367574074074	172.838374074074	380	13.414	1.444	19
29.614	0.481999999999999	3	rating	411	1	211.580766666667	201.367574074074	172.838374074074	380	13.414	1.444	19
30.096	0	3	response	411	1	211.580766666667	201.367574074074	172.838374074074	380	13.414	1.444	19
30.096	0.5	3	feedback	411	1	211.580766666667	201.367574074074	172.838374074074	380	13.414	1.444	19
36.667	4.002	4	valuation	215	1	226.313933333333	219.814351851852	192.275048148148	50	0.391	0.073	1.969
40.669	0.712000000000003	4	rating	215	1	226.313933333333	219.814351851852	192.275048148148	50	0.391	0.073	1.969
41.381	0	4	response	215	1	226.313933333333	219.814351851852	192.275048148148	50	0.391	0.073	1.969
41.381	0.5	4	feedback	215	1	226.313933333333	219.814351851852	192.275048148148	50	0.391	0.073	1.969
49.428	4.004	5	valuation	27	4	228.551785185185	219.525462962963	198.217625925926	200	10.96	78.8	81.2
53.432	0.577999999999996	5	rating	27	4	228.551785185185	219.525462962963	198.217625925926	200	10.96	78.8	81.2
54.01	0	5	response	27	4	228.551785185185	219.525462962963	198.217625925926	200	10.96	78.8	81.2
54.01	0.5	5	feedback	27	4	228.551785185185	219.525462962963	198.217625925926	200	10.96	78.8	81.2
61.806	4.006	6	valuation	498	1	238.902148148148	210.754192592593	192.474385185185	60	10.74	15.06	0.66
65.812	0.528000000000006	6	rating	498	1	238.902148148148	210.754192592593	192.474385185185	60	10.74	15.06	0.66
66.34	0	6	response	498	1	238.902148148148	210.754192592593	192.474385185185	60	10.74	15.06	0.66
66.34	0.5	6	feedback	498	1	238.902148148148	210.754192592593	192.474385185185	60	10.74	15.06	0.66
73.872	4.004	7	valuation	529	1	208.136585185185	199.001888888889	165.4134	300	12	1.2	16.5
77.876	0.790999999999997	7	rating	529	1	208.136585185185	199.001888888889	165.4134	300	12	1.2	16.5
78.667	0	7	response	529	1	208.136585185185	199.001888888889	165.4134	300	12	1.2	16.5
78.667	0.5	7	feedback	529	1	208.136585185185	199.001888888889	165.4134	300	12	1.2	16.5
82.378	4.01000000000001	8	valuation	494	3	242.279511111111	229.845	217.972233333333	10	1	1.6	6.4
86.388	0.72999999999999	8	rating	494	3	242.279511111111	229.845	217.972233333333	10	1	1.6	6.4
87.118	0	8	response	494	3	242.279511111111	229.845	217.972233333333	10	1	1.6	6.4
87.118	0.5	8	feedback	494	3	242.279511111111	229.845	217.972233333333	10	1	1.6	6.4
94.02	4.018	9	valuation	166	3	172.567551851852	165.345744444444	163.705092592593	56	1.68	5.936	37.576
98.038	0.536000000000001	9	rating	166	3	172.567551851852	165.345744444444	163.705092592593	56	1.68	5.936	37.576
98.574	0	9	response	166	3	172.567551851852	165.345744444444	163.705092592593	56	1.68	5.936	37.576
98.574	0.5	9	feedback	166	3	172.567551851852	165.345744444444	163.705092592593	56	1.68	5.936	37.576
102.534	4.00399999999999	10	valuation	539	2	233.579448148148	215.357944444444	191.831003703704	80	17.36	40	7.52
106.538	0.63000000000001	10	rating	539	2	233.579448148148	215.357944444444	191.831003703704	80	17.36	40	7.52
107.168	0	10	response	539	2	233.579448148148	215.357944444444	191.831003703704	80	17.36	40	7.52
107.168	0.5	10	feedback	539	2	233.579448148148	215.357944444444	191.831003703704	80	17.36	40	7.52
110.361	4.00399999999999	11	valuation	261	2	246.434914814815	242.048607407407	231.333162962963	80	4.24	0.96	3.744
114.365	0.722999999999999	11	rating	261	2	246.434914814815	242.048607407407	231.333162962963	80	4.24	0.96	3.744
115.088	0	11	response	261	2	246.434914814815	242.048607407407	231.333162962963	80	4.24	0.96	3.744
115.088	0.5	11	feedback	261	2	246.434914814815	242.048607407407	231.333162962963	80	4.24	0.96	3.744
123.279	4.00700000000001	12	valuation	369	2	222.308459259259	220.629822222222	219.28912962963	40	9.84	0.08	8.8
127.286	0.929000000000002	12	rating	369	2	222.308459259259	220.629822222222	219.28912962963	40	9.84	0.08	8.8
128.215	0	12	response	369	2	222.308459259259	220.629822222222	219.28912962963	40	9.84	0.08	8.8
128.215	0.5	12	feedback	369	2	222.308459259259	220.629822222222	219.28912962963	40	9.84	0.08	8.8
133.205	4.00299999999999	13	valuation	488	4	240.102651851852	228.914944444444	222.975966666667	80	2.88	17.12	42
137.208	0.634000000000015	13	rating	488	4	240.102651851852	228.914944444444	222.975966666667	80	2.88	17.12	42
137.842	0	13	response	488	4	240.102651851852	228.914944444444	222.975966666667	80	2.88	17.12	42
137.842	0.5	13	feedback	488	4	240.102651851852	228.914944444444	222.975966666667	80	2.88	17.12	42
143.211	4.006	14	valuation	483	4	223.797618518518	207.292855555556	198.715448148148	340	19.38	24.82	48.28
147.217	0.561999999999983	14	rating	483	4	223.797618518518	207.292855555556	198.715448148148	340	19.38	24.82	48.28
147.779	0	14	response	483	4	223.797618518518	207.292855555556	198.715448148148	340	19.38	24.82	48.28
147.779	0.5	14	feedback	483	4	223.797618518518	207.292855555556	198.715448148148	340	19.38	24.82	48.28
155.707	4.00700000000001	15	valuation	403	3	230.25037037037	201.999262962963	185.160559259259	350	35	42	56
159.714	0.888000000000005	15	rating	403	3	230.25037037037	201.999262962963	185.160559259259	350	35	42	56
160.602	0	15	response	403	3	230.25037037037	201.999262962963	185.160559259259	350	35	42	56
160.602	0.5	15	feedback	403	3	230.25037037037	201.999262962963	185.160559259259	350	35	42	56
164.819	4.00400000000002	16	valuation	306	2	234.096081481481	192.577996296296	157.746648148148	230	4.6	15.433	27.83
168.823	0.748999999999995	16	rating	306	2	234.096081481481	192.577996296296	157.746648148148	230	4.6	15.433	27.83
169.572	0	16	response	306	2	234.096081481481	192.577996296296	157.746648148148	230	4.6	15.433	27.83
169.572	0.5	16	feedback	306	2	234.096081481481	192.577996296296	157.746648148148	230	4.6	15.433	27.83
174.18	4.00399999999999	17	valuation	254	1	231.593918518519	218.161466666667	216.226944444444	120	1.548	0.588	15.324
178.184	0.856999999999999	17	rating	254	1	231.593918518519	218.161466666667	216.226944444444	120	1.548	0.588	15.324
179.041	0	17	response	254	1	231.593918518519	218.161466666667	216.226944444444	120	1.548	0.588	15.324
179.041	0.5	17	feedback	254	1	231.593918518519	218.161466666667	216.226944444444	120	1.548	0.588	15.324
186.459	4.00999999999999	18	valuation	243	4	224.162848148148	201.069314814815	190.81787037037	110	0.858	0.429	5.863
190.469	0.727000000000004	18	rating	243	4	224.162848148148	201.069314814815	190.81787037037	110	0.858	0.429	5.863
191.196	0	18	response	243	4	224.162848148148	201.069314814815	190.81787037037	110	0.858	0.429	5.863
191.196	0.5	18	feedback	243	4	224.162848148148	201.069314814815	190.81787037037	110	0.858	0.429	5.863
196.813	4.00500000000002	19	valuation	28	3	230.415522222222	220.993285185185	214.040340740741	150	6.03	2.82	45.87
200.818	0.836999999999989	19	rating	28	3	230.415522222222	220.993285185185	214.040340740741	150	6.03	2.82	45.87
201.655	0	19	response	28	3	230.415522222222	220.993285185185	214.040340740741	150	6.03	2.82	45.87
201.655	0.5	19	feedback	28	3	230.415522222222	220.993285185185	214.040340740741	150	6.03	2.82	45.87
205.235	4.00399999999999	20	valuation	318	2	237.55152962963	224.783759259259	215.41777037037	197	24.822	35.854	18.124
209.239	0.889999999999986	20	rating	318	2	237.55152962963	224.783759259259	215.41777037037	197	24.822	35.854	18.124
210.129	0	20	response	318	2	237.55152962963	224.783759259259	215.41777037037	197	24.822	35.854	18.124
210.129	0.5	20	feedback	318	2	237.55152962963	224.783759259259	215.41777037037	197	24.822	35.854	18.124
217.191	4.00800000000001	21	valuation	477	1	223.237314814815	225.169562962963	212.872111111111	350	2.24	0.63	6.37
221.199	1.023	21	rating	477	1	223.237314814815	225.169562962963	212.872111111111	350	2.24	0.63	6.37
222.222	0	21	response	477	1	223.237314814815	225.169562962963	212.872111111111	350	2.24	0.63	6.37
222.222	0.5	21	feedback	477	1	223.237314814815	225.169562962963	212.872111111111	350	2.24	0.63	6.37
228.114	4.005	22	valuation	89	4	229.015514814815	202.398222222222	187.367851851852	175	6.65	19.6	51.275
232.119	0.780000000000001	22	rating	89	4	229.015514814815	202.398222222222	187.367851851852	175	6.65	19.6	51.275
232.899	0	22	response	89	4	229.015514814815	202.398222222222	187.367851851852	175	6.65	19.6	51.275
232.899	0.5	22	feedback	89	4	229.015514814815	202.398222222222	187.367851851852	175	6.65	19.6	51.275
238.399	4.006	23	valuation	48	3	225.469518518518	207.606522222222	178.779862962963	320	25.088	36.992	119.392
242.405	0.586000000000013	23	rating	48	3	225.469518518518	207.606522222222	178.779862962963	320	25.088	36.992	119.392
242.991	0	23	response	48	3	225.469518518518	207.606522222222	178.779862962963	320	25.088	36.992	119.392
242.991	0.5	23	feedback	48	3	225.469518518518	207.606522222222	178.779862962963	320	25.088	36.992	119.392
248.736	4.00400000000002	24	valuation	188	2	220.4578	193.576392592593	174.867218518518	350	42.385	17.185	85.085
252.74	0.652999999999992	24	rating	188	2	220.4578	193.576392592593	174.867218518518	350	42.385	17.185	85.085
253.393	0	24	response	188	2	220.4578	193.576392592593	174.867218518518	350	42.385	17.185	85.085
253.393	0.5	24	feedback	188	2	220.4578	193.576392592593	174.867218518518	350	42.385	17.185	85.085
258.651	4.00399999999996	25	valuation	424	1	203.596696296296	216.749440740741	193.937025925926	130	7.02	0.26	20.28
262.655	0.980000000000018	25	rating	424	1	203.596696296296	216.749440740741	193.937025925926	130	7.02	0.26	20.28
263.635	0	25	response	424	1	203.596696296296	216.749440740741	193.937025925926	130	7.02	0.26	20.28
263.635	0.5	25	feedback	424	1	203.596696296296	216.749440740741	193.937025925926	130	7.02	0.26	20.28
268.506	4.00400000000002	26	valuation	81	2	230.92702962963	212.896733333333	187.214492592593	550	36.025	31.02	116.985
272.51	0.689999999999998	26	rating	81	2	230.92702962963	212.896733333333	187.214492592593	550	36.025	31.02	116.985
273.2	0	26	response	81	2	230.92702962963	212.896733333333	187.214492592593	550	36.025	31.02	116.985
273.2	0.5	26	feedback	81	2	230.92702962963	212.896733333333	187.214492592593	550	36.025	31.02	116.985
279.333	4.00399999999996	27	valuation	417	1	205.155022222222	227.402596296296	179.027196296296	80	0	0	5.6
283.337	1.22300000000001	27	rating	417	1	205.155022222222	227.402596296296	179.027196296296	80	0	0	5.6
284.56	0	27	response	417	1	205.155022222222	227.402596296296	179.027196296296	80	0	0	5.6
284.56	0.5	27	feedback	417	1	205.155022222222	227.402596296296	179.027196296296	80	0	0	5.6
287.503	4.00400000000002	28	valuation	103	3	226.413511111111	205.373074074074	199.760314814815	120	4.2	14.4	41.16
291.507	0.612000000000023	28	rating	103	3	226.413511111111	205.373074074074	199.760314814815	120	4.2	14.4	41.16
292.119	0	28	response	103	3	226.413511111111	205.373074074074	199.760314814815	120	4.2	14.4	41.16
292.119	0.5	28	feedback	103	3	226.413511111111	205.373074074074	199.760314814815	120	4.2	14.4	41.16
299.402	4.00400000000002	29	valuation	181	2	229.859518518518	218.530111111111	203.711755555556	250	22.5	15.1	149
303.406	1.37	29	rating	181	2	229.859518518518	218.530111111111	203.711755555556	250	22.5	15.1	149
304.776	0	29	response	181	2	229.859518518518	218.530111111111	203.711755555556	250	22.5	15.1	149
304.776	0.5	29	feedback	181	2	229.859518518518	218.530111111111	203.711755555556	250	22.5	15.1	149
309.129	4.00399999999996	30	valuation	57	1	219.575303703704	211.099451851852	193.704033333333	210	29.106	37.338	39.333
313.133	0.825000000000045	30	rating	57	1	219.575303703704	211.099451851852	193.704033333333	210	29.106	37.338	39.333
313.958	0	30	response	57	1	219.575303703704	211.099451851852	193.704033333333	210	29.106	37.338	39.333
313.958	0.5	30	feedback	57	1	219.575303703704	211.099451851852	193.704033333333	210	29.106	37.338	39.333
322.263	4.00400000000002	31	valuation	230	3	242.721044444444	217.309944444444	187.067733333333	1360	9.792	1.904	90.032
326.267	0.658999999999992	31	rating	230	3	242.721044444444	217.309944444444	187.067733333333	1360	9.792	1.904	90.032
326.926	0	31	response	230	3	242.721044444444	217.309944444444	187.067733333333	1360	9.792	1.904	90.032
326.926	0.5	31	feedback	230	3	242.721044444444	217.309944444444	187.067733333333	1360	9.792	1.904	90.032
332.05	4.00299999999999	32	valuation	256	1	244.840307407407	205.061040740741	186.122466666667	500	2	0.5	29.55
336.053	0.670000000000016	32	rating	256	1	244.840307407407	205.061040740741	186.122466666667	500	2	0.5	29.55
336.723	0	32	response	256	1	244.840307407407	205.061040740741	186.122466666667	500	2	0.5	29.55
336.723	0.5	32	feedback	256	1	244.840307407407	205.061040740741	186.122466666667	500	2	0.5	29.55
345.284	4.00900000000001	33	valuation	224	3	204.284585185185	186.762425925926	184.890859259259	100	1	0.5	6
349.293	0.58299999999997	33	rating	224	3	204.284585185185	186.762425925926	184.890859259259	100	1	0.5	6
349.876	0	33	response	224	3	204.284585185185	186.762425925926	184.890859259259	100	1	0.5	6
349.876	0.5	33	feedback	224	3	204.284585185185	186.762425925926	184.890859259259	100	1	0.5	6
352.556	4.00600000000003	34	valuation	451	2	232.25152962963	199.246766666667	173.495596296296	7	0.8372	4.312	0.7378
356.562	0.74799999999999	34	rating	451	2	232.25152962963	199.246766666667	173.495596296296	7	0.8372	4.312	0.7378
357.31	0	34	response	451	2	232.25152962963	199.246766666667	173.495596296296	7	0.8372	4.312	0.7378
357.31	0.5	34	feedback	451	2	232.25152962963	199.246766666667	173.495596296296	7	0.8372	4.312	0.7378
363.954	4.00299999999999	35	valuation	405	1	225.487281481482	228.002303703704	203.845462962963	300	6	0.6	3
367.957	0.55400000000003	35	rating	405	1	225.487281481482	228.002303703704	203.845462962963	300	6	0.6	3
368.511	0	35	response	405	1	225.487281481482	228.002303703704	203.845462962963	300	6	0.6	3
368.511	0.5	35	feedback	405	1	225.487281481482	228.002303703704	203.845462962963	300	6	0.6	3
371.597	4.00400000000002	36	valuation	440	2	241.811451851852	219.400740740741	193.191566666667	1100	90.2	13.2	536.8
375.601	0.744000000000028	36	rating	440	2	241.811451851852	219.400740740741	193.191566666667	1100	90.2	13.2	536.8
376.345	0	36	response	440	2	241.811451851852	219.400740740741	193.191566666667	1100	90.2	13.2	536.8
376.345	0.5	36	feedback	440	2	241.811451851852	219.400740740741	193.191566666667	1100	90.2	13.2	536.8
384.007	4.00400000000002	37	valuation	309	3	239.528037037037	219.687762962963	199.263762962963	300	54	22.83	51.9
388.011	0.649999999999977	37	rating	309	3	239.528037037037	219.687762962963	199.263762962963	300	54	22.83	51.9
388.661	0	37	response	309	3	239.528037037037	219.687762962963	199.263762962963	300	54	22.83	51.9
388.661	0.5	37	feedback	309	3	239.528037037037	219.687762962963	199.263762962963	300	54	22.83	51.9
395.437	4.00900000000001	38	valuation	450	2	230.039977777778	202.773103703704	181.145396296296	182	21.7672	112.112	19.1828
399.446	0.760999999999967	38	rating	450	2	230.039977777778	202.773103703704	181.145396296296	182	21.7672	112.112	19.1828
400.207	0	38	response	450	2	230.039977777778	202.773103703704	181.145396296296	182	21.7672	112.112	19.1828
400.207	0.5	38	feedback	450	2	230.039977777778	202.773103703704	181.145396296296	182	21.7672	112.112	19.1828
407.351	4.005	39	valuation	68	2	222.721862962963	203.222114814815	187.400314814815	350	42.385	17.185	85.085
411.356	0.641999999999996	39	rating	68	2	222.721862962963	203.222114814815	187.400314814815	350	42.385	17.185	85.085
411.998	0	39	response	68	2	222.721862962963	203.222114814815	187.400314814815	350	42.385	17.185	85.085
411.998	0.5	39	feedback	68	2	222.721862962963	203.222114814815	187.400314814815	350	42.385	17.185	85.085
414.553	4.00299999999999	40	valuation	513	2	197.361259259259	198.7587	189.025185185185	20	0.36	4.85	0.79
418.556	0.563000000000045	40	rating	513	2	197.361259259259	198.7587	189.025185185185	20	0.36	4.85	0.79
419.119	0	40	response	513	2	197.361259259259	198.7587	189.025185185185	20	0.36	4.85	0.79
419.119	0.5	40	feedback	513	2	197.361259259259	198.7587	189.025185185185	20	0.36	4.85	0.79
423.598	4.00399999999996	41	valuation	371	3	251.071388888889	212.9891	185.572385185185	35	3.15	0.735	12.95
427.602	1.34800000000001	41	rating	371	3	251.071388888889	212.9891	185.572385185185	35	3.15	0.735	12.95
428.95	0	41	response	371	3	251.071388888889	212.9891	185.572385185185	35	3.15	0.735	12.95
428.95	0.5	41	feedback	371	3	251.071388888889	212.9891	185.572385185185	35	3.15	0.735	12.95
432.265	4.00400000000002	42	valuation	356	1	209.244085185185	213.698255555556	186.001381481482	430	13.33	0.989	35.69
436.269	0.576000000000022	42	rating	356	1	209.244085185185	213.698255555556	186.001381481482	430	13.33	0.989	35.69
436.845	0	42	response	356	1	209.244085185185	213.698255555556	186.001381481482	430	13.33	0.989	35.69
436.845	0.5	42	feedback	356	1	209.244085185185	213.698255555556	186.001381481482	430	13.33	0.989	35.69
440.688	4.02100000000002	43	valuation	53	1	230.338377777778	209.626933333333	185.39507037037	115	10.5777	11.3735	30.23695
444.709	0.612000000000023	43	rating	53	1	230.338377777778	209.626933333333	185.39507037037	115	10.5777	11.3735	30.23695
445.321	0	43	response	53	1	230.338377777778	209.626933333333	185.39507037037	115	10.5777	11.3735	30.23695
445.321	0.5	43	feedback	53	1	230.338377777778	209.626933333333	185.39507037037	115	10.5777	11.3735	30.23695
451.712	4.00400000000002	44	valuation	425	1	232.791192592593	214.940514814815	198.185377777778	60	3.84	0.6	27.78
455.716	0.522999999999968	44	rating	425	1	232.791192592593	214.940514814815	198.185377777778	60	3.84	0.6	27.78
456.239	0	44	response	425	1	232.791192592593	214.940514814815	198.185377777778	60	3.84	0.6	27.78
456.239	0.5	44	feedback	425	1	232.791192592593	214.940514814815	198.185377777778	60	3.84	0.6	27.78
462.248	4.00400000000002	45	valuation	149	2	225.942218518519	180.648325925926	148.457092592593	70	10.5	23.1	28
466.252	0.639999999999986	45	rating	149	2	225.942218518519	180.648325925926	148.457092592593	70	10.5	23.1	28
466.892	0	45	response	149	2	225.942218518519	180.648325925926	148.457092592593	70	10.5	23.1	28
466.892	0.5	45	feedback	149	2	225.942218518519	180.648325925926	148.457092592593	70	10.5	23.1	28
473.155	4.00400000000002	46	valuation	422	4	244.883433333333	225.257766666667	206.887925925926	120	2.88	18.24	30.24
477.159	0.817999999999984	46	rating	422	4	244.883433333333	225.257766666667	206.887925925926	120	2.88	18.24	30.24
477.977	0	46	response	422	4	244.883433333333	225.257766666667	206.887925925926	120	2.88	18.24	30.24
477.977	0.5	46	feedback	422	4	244.883433333333	225.257766666667	206.887925925926	120	2.88	18.24	30.24
482.062	4.00399999999996	47	valuation	5	3	233.14667037037	221.685714814815	203.758633333333	18	1.4004	4.6152	10.2258
486.066	0.638000000000034	47	rating	5	3	233.14667037037	221.685714814815	203.758633333333	18	1.4004	4.6152	10.2258
486.704	0	47	response	5	3	233.14667037037	221.685714814815	203.758633333333	18	1.4004	4.6152	10.2258
486.704	0.5	47	feedback	5	3	233.14667037037	221.685714814815	203.758633333333	18	1.4004	4.6152	10.2258
495.157	4.00400000000002	48	valuation	105	3	231.943188888889	211.231074074074	190.760774074074	50	2.55	5.8	34.1
499.161	0.687999999999988	48	rating	105	3	231.943188888889	211.231074074074	190.760774074074	50	2.55	5.8	34.1
499.849	0	48	response	105	3	231.943188888889	211.231074074074	190.760774074074	50	2.55	5.8	34.1
499.849	0.5	48	feedback	105	3	231.943188888889	211.231074074074	190.760774074074	50	2.55	5.8	34.1
