onset	duration	trial_id	trial_type	image_id	rating_value	red	green	blue	gram	protein	fat	carb
10.047	4.004	1	valuation	553	4	233.132855555556	207.314462962963	194.290892592593	700	105	63	14
14.051	0.737	1	rating	553	4	233.132855555556	207.314462962963	194.290892592593	700	105	63	14
14.788	0	1	response	553	4	233.132855555556	207.314462962963	194.290892592593	700	105	63	14
14.788	0.5	1	feedback	553	4	233.132855555556	207.314462962963	194.290892592593	700	105	63	14
18.397	4.004	2	valuation	231	4	226.702340740741	202.730481481481	190.344407407407	600	1.86	2.4	68.4
22.401	0.637	2	rating	231	4	226.702340740741	202.730481481481	190.344407407407	600	1.86	2.4	68.4
23.038	0	2	response	231	4	226.702340740741	202.730481481481	190.344407407407	600	1.86	2.4	68.4
23.038	0.5	2	feedback	231	4	226.702340740741	202.730481481481	190.344407407407	600	1.86	2.4	68.4
27.006	4.006	3	valuation	185	3	238.066225925926	220.562592592593	202.88197037037	300	45.57	79.11	0.84
31.012	0.887	3	rating	185	3	238.066225925926	220.562592592593	202.88197037037	300	45.57	79.11	0.84
31.899	0	3	response	185	3	238.066225925926	220.562592592593	202.88197037037	300	45.57	79.11	0.84
31.899	0.5	3	feedback	185	3	238.066225925926	220.562592592593	202.88197037037	300	45.57	79.11	0.84
36.703	4.004	4	valuation	289	4	208.197966666667	194.403118518519	189.596359259259	55	3.025	11.605	37.015
40.707	0.606000000000002	4	rating	289	4	208.197966666667	194.403118518519	189.596359259259	55	3.025	11.605	37.015
41.313	0	4	response	289	4	208.197966666667	194.403118518519	189.596359259259	55	3.025	11.605	37.015
41.313	0.5	4	feedback	289	4	208.197966666667	194.403118518519	189.596359259259	55	3.025	11.605	37.015
45.804	4.005	5	valuation	159	4	197.329748148148	181.536988888889	176.506477777778	48	2.64	15.888	21.84
49.809	0.737000000000002	5	rating	159	4	197.329748148148	181.536988888889	176.506477777778	48	2.64	15.888	21.84
50.546	0	5	response	159	4	197.329748148148	181.536988888889	176.506477777778	48	2.64	15.888	21.84
50.546	0.5	5	feedback	159	4	197.329748148148	181.536988888889	176.506477777778	48	2.64	15.888	21.84
58.95	4.004	6	valuation	549	4	248.646144444444	208.924014814815	169.531925925926	80	6.16	1.36	40.48
62.954	1.86299999999999	6	rating	549	4	248.646144444444	208.924014814815	169.531925925926	80	6.16	1.36	40.48
64.817	0	6	response	549	4	248.646144444444	208.924014814815	169.531925925926	80	6.16	1.36	40.48
64.817	0.5	6	feedback	549	4	248.646144444444	208.924014814815	169.531925925926	80	6.16	1.36	40.48
67.351	4.004	7	valuation	80	4	241.8799	231.539851851852	216.649044444444	120	9.6	13.872	44.76
71.355	0.394999999999996	7	rating	80	4	241.8799	231.539851851852	216.649044444444	120	9.6	13.872	44.76
71.75	0	7	response	80	4	241.8799	231.539851851852	216.649044444444	120	9.6	13.872	44.76
71.75	0.5	7	feedback	80	4	241.8799	231.539851851852	216.649044444444	120	9.6	13.872	44.76
75.612	4.004	8	valuation	361	4	239.194337037037	196.791448148148	169.356607407407	150	1.95	0.3	7.8
79.616	0.677999999999997	8	rating	361	4	239.194337037037	196.791448148148	169.356607407407	150	1.95	0.3	7.8
80.294	0	8	response	361	4	239.194337037037	196.791448148148	169.356607407407	150	1.95	0.3	7.8
80.294	0.5	8	feedback	361	4	239.194337037037	196.791448148148	169.356607407407	150	1.95	0.3	7.8
83.48	4.00399999999999	9	valuation	327	4	238.744462962963	227.05712962963	175.484018518519	225	4.635	5.6025	25.7625
87.484	0.533000000000001	9	rating	327	4	238.744462962963	227.05712962963	175.484018518519	225	4.635	5.6025	25.7625
88.017	0	9	response	327	4	238.744462962963	227.05712962963	175.484018518519	225	4.635	5.6025	25.7625
88.017	0.5	9	feedback	327	4	238.744462962963	227.05712962963	175.484018518519	225	4.635	5.6025	25.7625
94.072	4.005	10	valuation	128	4	235.053166666667	226.200637037037	221.721766666667	2000	20	6	1900
98.077	1.80500000000001	10	rating	128	4	235.053166666667	226.200637037037	221.721766666667	2000	20	6	1900
99.882	0	10	response	128	4	235.053166666667	226.200637037037	221.721766666667	2000	20	6	1900
99.882	0.5	10	feedback	128	4	235.053166666667	226.200637037037	221.721766666667	2000	20	6	1900
107.132	4.003	11	valuation	332	4	219.616477777778	209.735259259259	178.231551851852	230	2.668	0.322	4.002
111.135	0.641999999999996	11	rating	332	4	219.616477777778	209.735259259259	178.231551851852	230	2.668	0.322	4.002
111.777	0	11	response	332	4	219.616477777778	209.735259259259	178.231551851852	230	2.668	0.322	4.002
111.777	0.5	11	feedback	332	4	219.616477777778	209.735259259259	178.231551851852	230	2.668	0.322	4.002
117.077	4.004	12	valuation	354	4	208.062944444444	184.856207407407	173.836218518518	65	1.378	4.1795	11.96
121.081	0.691999999999993	12	rating	354	4	208.062944444444	184.856207407407	173.836218518518	65	1.378	4.1795	11.96
121.773	0	12	response	354	4	208.062944444444	184.856207407407	173.836218518518	65	1.378	4.1795	11.96
121.773	0.5	12	feedback	354	4	208.062944444444	184.856207407407	173.836218518518	65	1.378	4.1795	11.96
124.436	4.00399999999999	13	valuation	249	3	227.740374074074	228.878825925926	212.286907407407	1900	28.88	3.23	27.55
128.44	1.19499999999999	13	rating	249	3	227.740374074074	228.878825925926	212.286907407407	1900	28.88	3.23	27.55
129.635	0	13	response	249	3	227.740374074074	228.878825925926	212.286907407407	1900	28.88	3.23	27.55
129.635	0.5	13	feedback	249	3	227.740374074074	228.878825925926	212.286907407407	1900	28.88	3.23	27.55
137.384	4.00800000000001	14	valuation	532	3	239.080144444444	243.689548148148	246.449459259259	10000	0	0	0
141.392	1.613	14	rating	532	3	239.080144444444	243.689548148148	246.449459259259	10000	0	0	0
143.005	0	14	response	532	3	239.080144444444	243.689548148148	246.449459259259	10000	0	0	0
143.005	0.5	14	feedback	532	3	239.080144444444	243.689548148148	246.449459259259	10000	0	0	0
149.724	4.00400000000002	15	valuation	216	4	228.954881481481	203.75372962963	184.151355555556	300	2.49	0.27	34.23
153.728	0.665999999999997	15	rating	216	4	228.954881481481	203.75372962963	184.151355555556	300	2.49	0.27	34.23
154.394	0	15	response	216	4	228.954881481481	203.75372962963	184.151355555556	300	2.49	0.27	34.23
154.394	0.5	15	feedback	216	4	228.954881481481	203.75372962963	184.151355555556	300	2.49	0.27	34.23
157.34	4.00399999999999	16	valuation	306	1	234.096081481481	192.577996296296	157.746648148148	230	4.6	15.433	27.83
161.344	0.479000000000013	16	rating	306	1	234.096081481481	192.577996296296	157.746648148148	230	4.6	15.433	27.83
161.823	0	16	response	306	1	234.096081481481	192.577996296296	157.746648148148	230	4.6	15.433	27.83
161.823	0.5	16	feedback	306	1	234.096081481481	192.577996296296	157.746648148148	230	4.6	15.433	27.83
168.921	4.00700000000001	17	valuation	567	4	227.464122222222	202.702303703704	182.334788888889	120	7.8	6.36	2.4
172.928	0.753000000000014	17	rating	567	4	227.464122222222	202.702303703704	182.334788888889	120	7.8	6.36	2.4
173.681	0	17	response	567	4	227.464122222222	202.702303703704	182.334788888889	120	7.8	6.36	2.4
173.681	0.5	17	feedback	567	4	227.464122222222	202.702303703704	182.334788888889	120	7.8	6.36	2.4
179.475	4.00400000000002	18	valuation	305	3	206.585207407407	213.726974074074	188.382233333333	90	3.33	0.486	12.663
183.479	1.58399999999997	18	rating	305	3	206.585207407407	213.726974074074	188.382233333333	90	3.33	0.486	12.663
185.063	0	18	response	305	3	206.585207407407	213.726974074074	188.382233333333	90	3.33	0.486	12.663
185.063	0.5	18	feedback	305	3	206.585207407407	213.726974074074	188.382233333333	90	3.33	0.486	12.663
190.466	4.00299999999999	19	valuation	10	4	235.360514814815	227.360366666667	213.76962962963	250	8.35	16.825	40.125
194.469	0.567000000000007	19	rating	10	4	235.360514814815	227.360366666667	213.76962962963	250	8.35	16.825	40.125
195.036	0	19	response	10	4	235.360514814815	227.360366666667	213.76962962963	250	8.35	16.825	40.125
195.036	0.5	19	feedback	10	4	235.360514814815	227.360366666667	213.76962962963	250	8.35	16.825	40.125
200.178	4.005	20	valuation	397	4	205.286366666667	197.069281481481	197.402355555556	200	1.4	0.6	31.2
204.183	0.705000000000013	20	rating	397	4	205.286366666667	197.069281481481	197.402355555556	200	1.4	0.6	31.2
204.888	0	20	response	397	4	205.286366666667	197.069281481481	197.402355555556	200	1.4	0.6	31.2
204.888	0.5	20	feedback	397	4	205.286366666667	197.069281481481	197.402355555556	200	1.4	0.6	31.2
210.42	4.00500000000002	21	valuation	201	4	194.658677777778	195.348214814815	171.040111111111	50	1.3	0.15	1.95
214.425	0.675999999999988	21	rating	201	4	194.658677777778	195.348214814815	171.040111111111	50	1.3	0.15	1.95
215.101	0	21	response	201	4	194.658677777778	195.348214814815	171.040111111111	50	1.3	0.15	1.95
215.101	0.5	21	feedback	201	4	194.658677777778	195.348214814815	171.040111111111	50	1.3	0.15	1.95
222.09	4.005	22	valuation	176	3	235.462822222222	218.954396296296	216.680240740741	250	42.5	80.325	0.55
226.095	1.184	22	rating	176	3	235.462822222222	218.954396296296	216.680240740741	250	42.5	80.325	0.55
227.279	0	22	response	176	3	235.462822222222	218.954396296296	216.680240740741	250	42.5	80.325	0.55
227.279	0.5	22	feedback	176	3	235.462822222222	218.954396296296	216.680240740741	250	42.5	80.325	0.55
234.9	4.00899999999999	23	valuation	335	3	223.632237037037	232.05582962963	207.488859259259	15	0.615	0.03	1.47
238.909	0.941000000000003	23	rating	335	3	223.632237037037	232.05582962963	207.488859259259	15	0.615	0.03	1.47
239.85	0	23	response	335	3	223.632237037037	232.05582962963	207.488859259259	15	0.615	0.03	1.47
239.85	0.5	23	feedback	335	3	223.632237037037	232.05582962963	207.488859259259	15	0.615	0.03	1.47
248.021	4.00500000000002	24	valuation	409	4	219.765203703704	214.266048148148	206.449322222222	250	46.25	30	0
252.026	0.525999999999982	24	rating	409	4	219.765203703704	214.266048148148	206.449322222222	250	46.25	30	0
252.552	0	24	response	409	4	219.765203703704	214.266048148148	206.449322222222	250	46.25	30	0
252.552	0.5	24	feedback	409	4	219.765203703704	214.266048148148	206.449322222222	250	46.25	30	0
258.867	4.00399999999996	25	valuation	85	4	225.909674074074	206.057666666667	193.122377777778	550	36.025	31.02	116.985
262.871	0.708000000000027	25	rating	85	4	225.909674074074	206.057666666667	193.122377777778	550	36.025	31.02	116.985
263.579	0	25	response	85	4	225.909674074074	206.057666666667	193.122377777778	550	36.025	31.02	116.985
263.579	0.5	25	feedback	85	4	225.909674074074	206.057666666667	193.122377777778	550	36.025	31.02	116.985
271.59	4.00800000000004	26	valuation	272	3	226.874996296296	232.635744444444	227.7664	30	1.074	0.18	0.48
275.598	1.541	26	rating	272	3	226.874996296296	232.635744444444	227.7664	30	1.074	0.18	0.48
277.139	0	26	response	272	3	226.874996296296	232.635744444444	227.7664	30	1.074	0.18	0.48
277.139	0.5	26	feedback	272	3	226.874996296296	232.635744444444	227.7664	30	1.074	0.18	0.48
282.179	4.00400000000002	27	valuation	147	4	237.128222222222	225.726059259259	223.239396296296	30	1.38	0.06	23.88
286.183	0.841999999999985	27	rating	147	4	237.128222222222	225.726059259259	223.239396296296	30	1.38	0.06	23.88
287.025	0	27	response	147	4	237.128222222222	225.726059259259	223.239396296296	30	1.38	0.06	23.88
287.025	0.5	27	feedback	147	4	237.128222222222	225.726059259259	223.239396296296	30	1.38	0.06	23.88
290.472	4.00400000000002	28	valuation	380	2	216.394555555556	214.203525925926	192.614544444444	30	0.192	0.054	0.546
294.476	0.678999999999974	28	rating	380	2	216.394555555556	214.203525925926	192.614544444444	30	0.192	0.054	0.546
295.155	0	28	response	380	2	216.394555555556	214.203525925926	192.614544444444	30	0.192	0.054	0.546
295.155	0.5	28	feedback	380	2	216.394555555556	214.203525925926	192.614544444444	30	0.192	0.054	0.546
298.237	4.00399999999996	29	valuation	431	3	230.700055555556	229.526433333333	218.11687037037	550	7.15	1.1	28.6
302.241	0.746000000000038	29	rating	431	3	230.700055555556	229.526433333333	218.11687037037	550	7.15	1.1	28.6
302.987	0	29	response	431	3	230.700055555556	229.526433333333	218.11687037037	550	7.15	1.1	28.6
302.987	0.5	29	feedback	431	3	230.700055555556	229.526433333333	218.11687037037	550	7.15	1.1	28.6
306.695	4.00400000000002	30	valuation	458	4	242.648577777778	229.380874074074	183.049566666667	92	0.414	0.3496	4.7564
310.699	0.527999999999963	30	rating	458	4	242.648577777778	229.380874074074	183.049566666667	92	0.414	0.3496	4.7564
311.227	0	30	response	458	4	242.648577777778	229.380874074074	183.049566666667	92	0.414	0.3496	4.7564
311.227	0.5	30	feedback	458	4	242.648577777778	229.380874074074	183.049566666667	92	0.414	0.3496	4.7564
318.61	4.00399999999996	31	valuation	462	3	242.881303703704	224.1234	217.997062962963	3700	666	647.5	11.1
322.614	0.618000000000052	31	rating	462	3	242.881303703704	224.1234	217.997062962963	3700	666	647.5	11.1
323.232	0	31	response	462	3	242.881303703704	224.1234	217.997062962963	3700	666	647.5	11.1
323.232	0.5	31	feedback	462	3	242.881303703704	224.1234	217.997062962963	3700	666	647.5	11.1
329.678	4.00400000000002	32	valuation	465	4	204.802055555556	193.160851851852	187.578444444444	70	4.55	26.6	35
333.682	0.653999999999996	32	rating	465	4	204.802055555556	193.160851851852	187.578444444444	70	4.55	26.6	35
334.336	0	32	response	465	4	204.802055555556	193.160851851852	187.578444444444	70	4.55	26.6	35
334.336	0.5	32	feedback	465	4	204.802055555556	193.160851851852	187.578444444444	70	4.55	26.6	35
340.019	4.00599999999997	33	valuation	508	3	183.246151851852	204.759714814815	177.769085185185	500	6.25	1.1	5.3
344.025	0.656000000000006	33	rating	508	3	183.246151851852	204.759714814815	177.769085185185	500	6.25	1.1	5.3
344.681	0	33	response	508	3	183.246151851852	204.759714814815	177.769085185185	500	6.25	1.1	5.3
344.681	0.5	33	feedback	508	3	183.246151851852	204.759714814815	177.769085185185	500	6.25	1.1	5.3
348.939	4.00599999999997	34	valuation	218	4	216.072659259259	201.749744444444	192.279251851852	590	5.9	1.18	62.363
352.945	0.975000000000023	34	rating	218	4	216.072659259259	201.749744444444	192.279251851852	590	5.9	1.18	62.363
353.92	0	34	response	218	4	216.072659259259	201.749744444444	192.279251851852	590	5.9	1.18	62.363
353.92	0.5	34	feedback	218	4	216.072659259259	201.749744444444	192.279251851852	590	5.9	1.18	62.363
362.214	4.00799999999998	35	valuation	340	4	229.827418518519	217.80897037037	208.975240740741	5	0.19	0	4
366.222	0.658999999999992	35	rating	340	4	229.827418518519	217.80897037037	208.975240740741	5	0.19	0	4
366.881	0	35	response	340	4	229.827418518519	217.80897037037	208.975240740741	5	0.19	0	4
366.881	0.5	35	feedback	340	4	229.827418518519	217.80897037037	208.975240740741	5	0.19	0	4
371.502	4.00399999999996	36	valuation	279	4	241.263014814815	240.356188888889	238.881318518519	65	3.38	1.105	18.785
375.506	0.593000000000018	36	rating	279	4	241.263014814815	240.356188888889	238.881318518519	65	3.38	1.105	18.785
376.099	0	36	response	279	4	241.263014814815	240.356188888889	238.881318518519	65	3.38	1.105	18.785
376.099	0.5	36	feedback	279	4	241.263014814815	240.356188888889	238.881318518519	65	3.38	1.105	18.785
382.285	4.00799999999998	37	valuation	125	4	233.642818518518	233.168048148148	226.704066666667	250	2.5	0.75	237.5
386.293	0.567000000000007	37	rating	125	4	233.642818518518	233.168048148148	226.704066666667	250	2.5	0.75	237.5
386.86	0	37	response	125	4	233.642818518518	233.168048148148	226.704066666667	250	2.5	0.75	237.5
386.86	0.5	37	feedback	125	4	233.642818518518	233.168048148148	226.704066666667	250	2.5	0.75	237.5
393.465	4.00500000000005	38	valuation	187	4	243.599374074074	219.512066666667	207.100203703704	70	3.64	13.16	25.13
397.47	0.72399999999999	38	rating	187	4	243.599374074074	219.512066666667	207.100203703704	70	3.64	13.16	25.13
398.194	0	38	response	187	4	243.599374074074	219.512066666667	207.100203703704	70	3.64	13.16	25.13
398.194	0.5	38	feedback	187	4	243.599374074074	219.512066666667	207.100203703704	70	3.64	13.16	25.13
405.031	4.005	39	valuation	266	3	236.431551851852	237.5085	229.194196296296	105	0.945	0.315	8.925
409.036	1.27100000000002	39	rating	266	3	236.431551851852	237.5085	229.194196296296	105	0.945	0.315	8.925
410.307	0	39	response	266	3	236.431551851852	237.5085	229.194196296296	105	0.945	0.315	8.925
410.307	0.5	39	feedback	266	3	236.431551851852	237.5085	229.194196296296	105	0.945	0.315	8.925
414.418	4.005	40	valuation	118	4	238.908655555556	227.220633333333	216.094551851852	250	3.5	14.9	73.2
418.423	0.589999999999975	40	rating	118	4	238.908655555556	227.220633333333	216.094551851852	250	3.5	14.9	73.2
419.013	0	40	response	118	4	238.908655555556	227.220633333333	216.094551851852	250	3.5	14.9	73.2
419.013	0.5	40	feedback	118	4	238.908655555556	227.220633333333	216.094551851852	250	3.5	14.9	73.2
426.512	4.00400000000002	41	valuation	16	4	231.443377777778	213.845492592593	198.130418518519	800	62.88	160	360
430.516	0.428999999999974	41	rating	16	4	231.443377777778	213.845492592593	198.130418518519	800	62.88	160	360
430.945	0	41	response	16	4	231.443377777778	213.845492592593	198.130418518519	800	62.88	160	360
430.945	0.5	41	feedback	16	4	231.443377777778	213.845492592593	198.130418518519	800	62.88	160	360
438.847	4.00900000000001	42	valuation	257	4	214.500348148148	200.739385185185	199.419940740741	300	2.4	0.6	3.9
442.856	0.593000000000018	42	rating	257	4	214.500348148148	200.739385185185	199.419940740741	300	2.4	0.6	3.9
443.449	0	42	response	257	4	214.500348148148	200.739385185185	199.419940740741	300	2.4	0.6	3.9
443.449	0.5	42	feedback	257	4	214.500348148148	200.739385185185	199.419940740741	300	2.4	0.6	3.9
447.808	4.005	43	valuation	132	4	233.748444444444	222.715862962963	197.658111111111	350	101.5	105	0
451.813	0.687000000000012	43	rating	132	4	233.748444444444	222.715862962963	197.658111111111	350	101.5	105	0
452.5	0	43	response	132	4	233.748444444444	222.715862962963	197.658111111111	350	101.5	105	0
452.5	0.5	43	feedback	132	4	233.748444444444	222.715862962963	197.658111111111	350	101.5	105	0
457.384	4.00399999999996	44	valuation	156	4	241.581185185185	221.234507407407	201.485144444444	50	3.75	3.5	26
461.388	0.649000000000001	44	rating	156	4	241.581185185185	221.234507407407	201.485144444444	50	3.75	3.5	26
462.037	0	44	response	156	4	241.581185185185	221.234507407407	201.485144444444	50	3.75	3.5	26
462.037	0.5	44	feedback	156	4	241.581185185185	221.234507407407	201.485144444444	50	3.75	3.5	26
465.352	4.00400000000002	45	valuation	110	3	230.257825925926	215.939066666667	184.569088888889	50	10	25	10.5
469.356	0.63900000000001	45	rating	110	3	230.257825925926	215.939066666667	184.569088888889	50	10	25	10.5
469.995	0	45	response	110	3	230.257825925926	215.939066666667	184.569088888889	50	10	25	10.5
469.995	0.5	45	feedback	110	3	230.257825925926	215.939066666667	184.569088888889	50	10	25	10.5
475.921	4.00400000000002	46	valuation	472	4	231.892751851852	227.653685185185	221.137677777778	160	3.2	3.2	0.96
479.925	0.817999999999984	46	rating	472	4	231.892751851852	227.653685185185	221.137677777778	160	3.2	3.2	0.96
480.743	0	46	response	472	4	231.892751851852	227.653685185185	221.137677777778	160	3.2	3.2	0.96
480.743	0.5	46	feedback	472	4	231.892751851852	227.653685185185	221.137677777778	160	3.2	3.2	0.96
489.277	4.00900000000001	47	valuation	521	3	213.552314814815	208.950174074074	177.92487037037	600	42.3	7.8	199.2
493.286	0.863999999999976	47	rating	521	3	213.552314814815	208.950174074074	177.92487037037	600	42.3	7.8	199.2
494.15	0	47	response	521	3	213.552314814815	208.950174074074	177.92487037037	600	42.3	7.8	199.2
494.15	0.5	47	feedback	521	3	213.552314814815	208.950174074074	177.92487037037	600	42.3	7.8	199.2
