onset	duration	trial_id	trial_type	image_id	rating_value	red	green	blue	gram	protein	fat	carb
10.019	4.004	1	valuation	364	2	224.224622222222	230.670088888889	200.154666666667	80	1.36	0.08	3.76
14.023	0.526	1	rating	364	2	224.224622222222	230.670088888889	200.154666666667	80	1.36	0.08	3.76
14.549	0	1	response	364	2	224.224622222222	230.670088888889	200.154666666667	80	1.36	0.08	3.76
14.549	0.5	1	feedback	364	2	224.224622222222	230.670088888889	200.154666666667	80	1.36	0.08	3.76
19.726	4.003	2	valuation	322	1	221.623762962963	196.456659259259	165.997151851852	850	130.22	51	29.155
23.729	1.117	2	rating	322	1	221.623762962963	196.456659259259	165.997151851852	850	130.22	51	29.155
24.846	0	2	response	322	1	221.623762962963	196.456659259259	165.997151851852	850	130.22	51	29.155
24.846	0.5	2	feedback	322	1	221.623762962963	196.456659259259	165.997151851852	850	130.22	51	29.155
28.324	4.004	3	valuation	34	3	231.769207407407	217.87617037037	204.482866666667	380	74.784	132.392	13.49
32.328	0.477999999999994	3	rating	34	3	231.769207407407	217.87617037037	204.482866666667	380	74.784	132.392	13.49
32.806	0	3	response	34	3	231.769207407407	217.87617037037	204.482866666667	380	74.784	132.392	13.49
32.806	0.5	3	feedback	34	3	231.769207407407	217.87617037037	204.482866666667	380	74.784	132.392	13.49
38.785	4.003	4	valuation	218	3	216.072659259259	201.749744444444	192.279251851852	590	5.9	1.18	62.363
42.788	0.575000000000003	4	rating	218	3	216.072659259259	201.749744444444	192.279251851852	590	5.9	1.18	62.363
43.363	0	4	response	218	3	216.072659259259	201.749744444444	192.279251851852	590	5.9	1.18	62.363
43.363	0.5	4	feedback	218	3	216.072659259259	201.749744444444	192.279251851852	590	5.9	1.18	62.363
51.013	4.00700000000001	5	valuation	200	3	240.261533333333	228.197455555556	202.091514814815	560	4.032	0.784	37.072
55.02	0.535999999999994	5	rating	200	3	240.261533333333	228.197455555556	202.091514814815	560	4.032	0.784	37.072
55.556	0	5	response	200	3	240.261533333333	228.197455555556	202.091514814815	560	4.032	0.784	37.072
55.556	0.5	5	feedback	200	3	240.261533333333	228.197455555556	202.091514814815	560	4.032	0.784	37.072
62.393	4.005	6	valuation	335	2	223.632237037037	232.05582962963	207.488859259259	15	0.615	0.03	1.47
66.398	1.074	6	rating	335	2	223.632237037037	232.05582962963	207.488859259259	15	0.615	0.03	1.47
67.472	0	6	response	335	2	223.632237037037	232.05582962963	207.488859259259	15	0.615	0.03	1.47
67.472	0.5	6	feedback	335	2	223.632237037037	232.05582962963	207.488859259259	15	0.615	0.03	1.47
75.746	4.00500000000001	7	valuation	304	3	243.904940740741	229.072385185185	192.886733333333	400	8	22.8	44.8
79.751	0.557999999999993	7	rating	304	3	243.904940740741	229.072385185185	192.886733333333	400	8	22.8	44.8
80.309	0	7	response	304	3	243.904940740741	229.072385185185	192.886733333333	400	8	22.8	44.8
80.309	0.5	7	feedback	304	3	243.904940740741	229.072385185185	192.886733333333	400	8	22.8	44.8
86.887	4.00700000000001	8	valuation	447	1	212.686603703704	211.018374074074	167.308322222222	130	4.29	0.546	12.064
90.894	0.527000000000001	8	rating	447	1	212.686603703704	211.018374074074	167.308322222222	130	4.29	0.546	12.064
91.421	0	8	response	447	1	212.686603703704	211.018374074074	167.308322222222	130	4.29	0.546	12.064
91.421	0.5	8	feedback	447	1	212.686603703704	211.018374074074	167.308322222222	130	4.29	0.546	12.064
99.953	4.00399999999999	9	valuation	541	3	233.812844444444	223.655855555556	214.637522222222	520	109.2	10.4	0
103.957	0.635000000000005	9	rating	541	3	233.812844444444	223.655855555556	214.637522222222	520	109.2	10.4	0
104.592	0	9	response	541	3	233.812844444444	223.655855555556	214.637522222222	520	109.2	10.4	0
104.592	0.5	9	feedback	541	3	233.812844444444	223.655855555556	214.637522222222	520	109.2	10.4	0
108.431	4.00500000000001	10	valuation	427	2	245.42262962963	227.004585185185	206.62447037037	15	2.16	9.375	1.59
112.436	1.267	10	rating	427	2	245.42262962963	227.004585185185	206.62447037037	15	2.16	9.375	1.59
113.703	0	10	response	427	2	245.42262962963	227.004585185185	206.62447037037	15	2.16	9.375	1.59
113.703	0.5	10	feedback	427	2	245.42262962963	227.004585185185	206.62447037037	15	2.16	9.375	1.59
117.304	4.004	11	valuation	157	3	198.883511111111	170.1025	123.753666666667	100	6.3	0.1	77.4
121.308	0.582999999999998	11	rating	157	3	198.883511111111	170.1025	123.753666666667	100	6.3	0.1	77.4
121.891	0	11	response	157	3	198.883511111111	170.1025	123.753666666667	100	6.3	0.1	77.4
121.891	0.5	11	feedback	157	3	198.883511111111	170.1025	123.753666666667	100	6.3	0.1	77.4
127.424	4.00399999999999	12	valuation	542	2	221.90877037037	218.548407407407	205.845562962963	250	4.75	58.75	1
131.428	0.692000000000007	12	rating	542	2	221.90877037037	218.548407407407	205.845562962963	250	4.75	58.75	1
132.12	0	12	response	542	2	221.90877037037	218.548407407407	205.845562962963	250	4.75	58.75	1
132.12	0.5	12	feedback	542	2	221.90877037037	218.548407407407	205.845562962963	250	4.75	58.75	1
138.827	4.00300000000001	13	valuation	69	3	231.089803703704	215.682885185185	191.383751851852	200	19.56	16.54	58.26
142.83	0.593999999999994	13	rating	69	3	231.089803703704	215.682885185185	191.383751851852	200	19.56	16.54	58.26
143.424	0	13	response	69	3	231.089803703704	215.682885185185	191.383751851852	200	19.56	16.54	58.26
143.424	0.5	13	feedback	69	3	231.089803703704	215.682885185185	191.383751851852	200	19.56	16.54	58.26
147.937	4.005	14	valuation	299	1	201.18262962963	197.734925925926	162.005540740741	380	13.414	1.444	19
151.942	0.509999999999991	14	rating	299	1	201.18262962963	197.734925925926	162.005540740741	380	13.414	1.444	19
152.452	0	14	response	299	1	201.18262962963	197.734925925926	162.005540740741	380	13.414	1.444	19
152.452	0.5	14	feedback	299	1	201.18262962963	197.734925925926	162.005540740741	380	13.414	1.444	19
158.245	4.005	15	valuation	469	3	243.717551851852	232.71842962963	214.081474074074	50	3.68	1.67	23.845
162.25	1.02500000000001	15	rating	469	3	243.717551851852	232.71842962963	214.081474074074	50	3.68	1.67	23.845
163.275	0	15	response	469	3	243.717551851852	232.71842962963	214.081474074074	50	3.68	1.67	23.845
163.275	0.5	15	feedback	469	3	243.717551851852	232.71842962963	214.081474074074	50	3.68	1.67	23.845
168.547	4.00399999999999	16	valuation	514	3	233.642314814815	232.986755555556	225.940751851852	180	37.8	40.14	0.18
172.551	0.448000000000008	16	rating	514	3	233.642314814815	232.986755555556	225.940751851852	180	37.8	40.14	0.18
172.999	0	16	response	514	3	233.642314814815	232.986755555556	225.940751851852	180	37.8	40.14	0.18
172.999	0.5	16	feedback	514	3	233.642314814815	232.986755555556	225.940751851852	180	37.8	40.14	0.18
179.185	4.00399999999999	17	valuation	265	2	233.661751851852	234.000248148148	227.072	130	1.768	0.442	2.262
183.189	0.433000000000021	17	rating	265	2	233.661751851852	234.000248148148	227.072	130	1.768	0.442	2.262
183.622	0	17	response	265	2	233.661751851852	234.000248148148	227.072	130	1.768	0.442	2.262
183.622	0.5	17	feedback	265	2	233.661751851852	234.000248148148	227.072	130	1.768	0.442	2.262
186.55	4.00399999999999	18	valuation	169	4	192.852992592593	177.805596296296	172.424551851852	55	3.795	14.85	20.02
190.554	0.498999999999995	18	rating	169	4	192.852992592593	177.805596296296	172.424551851852	55	3.795	14.85	20.02
191.053	0	18	response	169	4	192.852992592593	177.805596296296	172.424551851852	55	3.795	14.85	20.02
191.053	0.5	18	feedback	169	4	192.852992592593	177.805596296296	172.424551851852	55	3.795	14.85	20.02
198.834	4.00800000000001	19	valuation	119	3	240.868811111111	223.05452962963	202.6496	50	3.615	13.43	17.75
202.842	0.635999999999996	19	rating	119	3	240.868811111111	223.05452962963	202.6496	50	3.615	13.43	17.75
203.478	0	19	response	119	3	240.868811111111	223.05452962963	202.6496	50	3.615	13.43	17.75
203.478	0.5	19	feedback	119	3	240.868811111111	223.05452962963	202.6496	50	3.615	13.43	17.75
210.858	4.00399999999999	20	valuation	212	2	226.158066666667	214.341974074074	196.840062962963	1000	15.4	21.5	30.4
214.862	0.973000000000013	20	rating	212	2	226.158066666667	214.341974074074	196.840062962963	1000	15.4	21.5	30.4
215.835	0	20	response	212	2	226.158066666667	214.341974074074	196.840062962963	1000	15.4	21.5	30.4
215.835	0.5	20	feedback	212	2	226.158066666667	214.341974074074	196.840062962963	1000	15.4	21.5	30.4
218.369	4.00399999999999	21	valuation	105	3	231.943188888889	211.231074074074	190.760774074074	50	2.55	5.8	34.1
222.373	0.572000000000003	21	rating	105	3	231.943188888889	211.231074074074	190.760774074074	50	2.55	5.8	34.1
222.945	0	21	response	105	3	231.943188888889	211.231074074074	190.760774074074	50	2.55	5.8	34.1
222.945	0.5	21	feedback	105	3	231.943188888889	211.231074074074	190.760774074074	50	2.55	5.8	34.1
229.263	4.00899999999999	22	valuation	85	3	225.909674074074	206.057666666667	193.122377777778	550	36.025	31.02	116.985
233.272	0.557000000000016	22	rating	85	3	225.909674074074	206.057666666667	193.122377777778	550	36.025	31.02	116.985
233.829	0	22	response	85	3	225.909674074074	206.057666666667	193.122377777778	550	36.025	31.02	116.985
233.829	0.5	22	feedback	85	3	225.909674074074	206.057666666667	193.122377777778	550	36.025	31.02	116.985
241.86	4.005	23	valuation	93	2	212.625351851852	187.828759259259	178.133451851852	180	9	39.6	77.4
245.865	0.659999999999997	23	rating	93	2	212.625351851852	187.828759259259	178.133451851852	180	9	39.6	77.4
246.525	0	23	response	93	2	212.625351851852	187.828759259259	178.133451851852	180	9	39.6	77.4
246.525	0.5	23	feedback	93	2	212.625351851852	187.828759259259	178.133451851852	180	9	39.6	77.4
251.538	4.00399999999999	24	valuation	406	2	223.619848148148	217.093585185185	201.357018518519	325	30.615	18.135	21.97
255.542	0.938999999999993	24	rating	406	2	223.619848148148	217.093585185185	201.357018518519	325	30.615	18.135	21.97
256.481	0	24	response	406	2	223.619848148148	217.093585185185	201.357018518519	325	30.615	18.135	21.97
256.481	0.5	24	feedback	406	2	223.619848148148	217.093585185185	201.357018518519	325	30.615	18.135	21.97
263.972	4.00400000000002	25	valuation	73	1	237.482414814815	230.123181481481	214.445337037037	400	24	16.32	61.2
267.976	0.668999999999983	25	rating	73	1	237.482414814815	230.123181481481	214.445337037037	400	24	16.32	61.2
268.645	0	25	response	73	1	237.482414814815	230.123181481481	214.445337037037	400	24	16.32	61.2
268.645	0.5	25	feedback	73	1	237.482414814815	230.123181481481	214.445337037037	400	24	16.32	61.2
276.818	4.00900000000001	26	valuation	259	3	218.695496296296	192.047703703704	203.066840740741	1600	18.72	2.24	44.16
280.827	0.569000000000017	26	rating	259	3	218.695496296296	192.047703703704	203.066840740741	1600	18.72	2.24	44.16
281.396	0	26	response	259	3	218.695496296296	192.047703703704	203.066840740741	1600	18.72	2.24	44.16
281.396	0.5	26	feedback	259	3	218.695496296296	192.047703703704	203.066840740741	1600	18.72	2.24	44.16
288.646	4.00399999999996	27	valuation	310	1	242.471503703704	215.496444444444	180.650911111111	65	9.1455	2.548	34.099
292.65	0.516999999999996	27	rating	310	1	242.471503703704	215.496444444444	180.650911111111	65	9.1455	2.548	34.099
293.167	0	27	response	310	1	242.471503703704	215.496444444444	180.650911111111	65	9.1455	2.548	34.099
293.167	0.5	27	feedback	310	1	242.471503703704	215.496444444444	180.650911111111	65	9.1455	2.548	34.099
296.483	4.00299999999999	28	valuation	433	1	240.476533333333	216.10922962963	201.709562962963	1200	16.8	2.4	55.2
300.486	0.454000000000008	28	rating	433	1	240.476533333333	216.10922962963	201.709562962963	1200	16.8	2.4	55.2
300.94	0	28	response	433	1	240.476533333333	216.10922962963	201.709562962963	1200	16.8	2.4	55.2
300.94	0.5	28	feedback	433	1	240.476533333333	216.10922962963	201.709562962963	1200	16.8	2.4	55.2
303.603	4.00400000000002	29	valuation	102	2	242.661011111111	243.689955555556	240.363340740741	100	1	0.3	95
307.607	0.618999999999971	29	rating	102	2	242.661011111111	243.689955555556	240.363340740741	100	1	0.3	95
308.226	0	29	response	102	2	242.661011111111	243.689955555556	240.363340740741	100	1	0.3	95
308.226	0.5	29	feedback	102	2	242.661011111111	243.689955555556	240.363340740741	100	1	0.3	95
312.978	4.00400000000002	30	valuation	257	3	214.500348148148	200.739385185185	199.419940740741	300	2.4	0.6	3.9
316.982	0.720999999999947	30	rating	257	3	214.500348148148	200.739385185185	199.419940740741	300	2.4	0.6	3.9
317.703	0	30	response	257	3	214.500348148148	200.739385185185	199.419940740741	300	2.4	0.6	3.9
317.703	0.5	30	feedback	257	3	214.500348148148	200.739385185185	199.419940740741	300	2.4	0.6	3.9
320.519	4.00400000000002	31	valuation	332	3	219.616477777778	209.735259259259	178.231551851852	230	2.668	0.322	4.002
324.523	0.562999999999988	31	rating	332	3	219.616477777778	209.735259259259	178.231551851852	230	2.668	0.322	4.002
325.086	0	31	response	332	3	219.616477777778	209.735259259259	178.231551851852	230	2.668	0.322	4.002
325.086	0.5	31	feedback	332	3	219.616477777778	209.735259259259	178.231551851852	230	2.668	0.322	4.002
332.998	4.00799999999998	32	valuation	110	2	230.257825925926	215.939066666667	184.569088888889	50	10	25	10.5
337.006	1.096	32	rating	110	2	230.257825925926	215.939066666667	184.569088888889	50	10	25	10.5
338.102	0	32	response	110	2	230.257825925926	215.939066666667	184.569088888889	50	10	25	10.5
338.102	0.5	32	feedback	110	2	230.257825925926	215.939066666667	184.569088888889	50	10	25	10.5
341.838	4.005	33	valuation	244	2	243.162111111111	237.490811111111	230.78427037037	66.7	5.1359	2.5346	53.2266
345.843	0.849999999999966	33	rating	244	2	243.162111111111	237.490811111111	230.78427037037	66.7	5.1359	2.5346	53.2266
346.693	0	33	response	244	2	243.162111111111	237.490811111111	230.78427037037	66.7	5.1359	2.5346	53.2266
346.693	0.5	33	feedback	244	2	243.162111111111	237.490811111111	230.78427037037	66.7	5.1359	2.5346	53.2266
351.052	4.00399999999996	34	valuation	414	2	232.920707407407	229.204237037037	206.009507407407	80	1.744	0.192	5.6
355.056	0.567000000000007	34	rating	414	2	232.920707407407	229.204237037037	206.009507407407	80	1.744	0.192	5.6
355.623	0	34	response	414	2	232.920707407407	229.204237037037	206.009507407407	80	1.744	0.192	5.6
355.623	0.5	34	feedback	414	2	232.920707407407	229.204237037037	206.009507407407	80	1.744	0.192	5.6
361.706	4.00399999999996	35	valuation	566	2	235.618392592593	221.82207037037	213.100407407407	190	8.55	6.65	3.8
365.71	0.700000000000045	35	rating	566	2	235.618392592593	221.82207037037	213.100407407407	190	8.55	6.65	3.8
366.41	0	35	response	566	2	235.618392592593	221.82207037037	213.100407407407	190	8.55	6.65	3.8
366.41	0.5	35	feedback	566	2	235.618392592593	221.82207037037	213.100407407407	190	8.55	6.65	3.8
372.855	4.00399999999996	36	valuation	150	3	227.759177777778	224.102914814815	218.988918518519	60	4.62	9.12	31.98
376.859	0.646000000000015	36	rating	150	3	227.759177777778	224.102914814815	218.988918518519	60	4.62	9.12	31.98
377.505	0	36	response	150	3	227.759177777778	224.102914814815	218.988918518519	60	4.62	9.12	31.98
377.505	0.5	36	feedback	150	3	227.759177777778	224.102914814815	218.988918518519	60	4.62	9.12	31.98
380.718	4.00399999999996	37	valuation	263	2	232.085611111111	221.1082	211.829974074074	118	2.5842	0.2242	0.531
384.722	0.64100000000002	37	rating	263	2	232.085611111111	221.1082	211.829974074074	118	2.5842	0.2242	0.531
385.363	0	37	response	263	2	232.085611111111	221.1082	211.829974074074	118	2.5842	0.2242	0.531
385.363	0.5	37	feedback	263	2	232.085611111111	221.1082	211.829974074074	118	2.5842	0.2242	0.531
389.461	4.005	38	valuation	120	4	244.170507407407	226.092925925926	203.564033333333	280	14.56	52.64	100.52
393.466	0.555000000000007	38	rating	120	4	244.170507407407	226.092925925926	203.564033333333	280	14.56	52.64	100.52
394.021	0	38	response	120	4	244.170507407407	226.092925925926	203.564033333333	280	14.56	52.64	100.52
394.021	0.5	38	feedback	120	4	244.170507407407	226.092925925926	203.564033333333	280	14.56	52.64	100.52
397.991	4.00400000000002	39	valuation	458	2	242.648577777778	229.380874074074	183.049566666667	92	0.414	0.3496	4.7564
401.995	0.483000000000004	39	rating	458	2	242.648577777778	229.380874074074	183.049566666667	92	0.414	0.3496	4.7564
402.478	0	39	response	458	2	242.648577777778	229.380874074074	183.049566666667	92	0.414	0.3496	4.7564
402.478	0.5	39	feedback	458	2	242.648577777778	229.380874074074	183.049566666667	92	0.414	0.3496	4.7564
408.141	4.00299999999999	40	valuation	252	2	234.366414814815	236.86237037037	220.153803703704	300	2.4	0.48	3.78
412.144	1.07900000000001	40	rating	252	2	234.366414814815	236.86237037037	220.153803703704	300	2.4	0.48	3.78
413.223	0	40	response	252	2	234.366414814815	236.86237037037	220.153803703704	300	2.4	0.48	3.78
413.223	0.5	40	feedback	252	2	234.366414814815	236.86237037037	220.153803703704	300	2.4	0.48	3.78
417.452	4.00400000000002	41	valuation	92	3	242.662940740741	227.70252962963	196.131222222222	600	150	210	0
421.456	0.435000000000002	41	rating	92	3	242.662940740741	227.70252962963	196.131222222222	600	150	210	0
421.891	0	41	response	92	3	242.662940740741	227.70252962963	196.131222222222	600	150	210	0
421.891	0.5	41	feedback	92	3	242.662940740741	227.70252962963	196.131222222222	600	150	210	0
430.317	4.00799999999998	42	valuation	42	4	233.080374074074	221.833485185185	221.096044444444	800	55.04	146.48	327.68
434.325	0.506000000000029	42	rating	42	4	233.080374074074	221.833485185185	221.096044444444	800	55.04	146.48	327.68
434.831	0	42	response	42	4	233.080374074074	221.833485185185	221.096044444444	800	55.04	146.48	327.68
434.831	0.5	42	feedback	42	4	233.080374074074	221.833485185185	221.096044444444	800	55.04	146.48	327.68
440.253	4.005	43	valuation	486	2	228.249133333333	213.26007037037	195.862514814815	540	50.274	64.638	103.464
444.258	1.27700000000004	43	rating	486	2	228.249133333333	213.26007037037	195.862514814815	540	50.274	64.638	103.464
445.535	0	43	response	486	2	228.249133333333	213.26007037037	195.862514814815	540	50.274	64.638	103.464
445.535	0.5	43	feedback	486	2	228.249133333333	213.26007037037	195.862514814815	540	50.274	64.638	103.464
452.632	4.00400000000002	44	valuation	125	2	233.642818518518	233.168048148148	226.704066666667	250	2.5	0.75	237.5
456.636	0.887999999999977	44	rating	125	2	233.642818518518	233.168048148148	226.704066666667	250	2.5	0.75	237.5
457.524	0	44	response	125	2	233.642818518518	233.168048148148	226.704066666667	250	2.5	0.75	237.5
457.524	0.5	44	feedback	125	2	233.642818518518	233.168048148148	226.704066666667	250	2.5	0.75	237.5
460.611	4.005	45	valuation	48	4	225.469518518518	207.606522222222	178.779862962963	320	25.088	36.992	119.392
464.616	0.467000000000041	45	rating	48	4	225.469518518518	207.606522222222	178.779862962963	320	25.088	36.992	119.392
465.083	0	45	response	48	4	225.469518518518	207.606522222222	178.779862962963	320	25.088	36.992	119.392
465.083	0.5	45	feedback	48	4	225.469518518518	207.606522222222	178.779862962963	320	25.088	36.992	119.392
469.992	4.00399999999996	46	valuation	60	1	233.02332962963	218.918403703704	196.226703703704	220	8.25	37.488	75.009
473.996	0.716000000000008	46	rating	60	1	233.02332962963	218.918403703704	196.226703703704	220	8.25	37.488	75.009
474.712	0	46	response	60	1	233.02332962963	218.918403703704	196.226703703704	220	8.25	37.488	75.009
474.712	0.5	46	feedback	60	1	233.02332962963	218.918403703704	196.226703703704	220	8.25	37.488	75.009
481.701	4.00899999999996	47	valuation	347	3	226.202544444444	180.040314814815	170.284607407407	50	1.85	0.83	27.4
485.71	0.586000000000013	47	rating	347	3	226.202544444444	180.040314814815	170.284607407407	50	1.85	0.83	27.4
486.296	0	47	response	347	3	226.202544444444	180.040314814815	170.284607407407	50	1.85	0.83	27.4
486.296	0.5	47	feedback	347	3	226.202544444444	180.040314814815	170.284607407407	50	1.85	0.83	27.4
