onset	duration	trial_id	trial_type	image_id	rating_value	red	green	blue	gram	protein	fat	carb
10.028	4.004	1	valuation	83	1	221.303485185185	211.5066	207.337811111111	60	6	19.5	25.5
14.032	1.165	1	rating	83	1	221.303485185185	211.5066	207.337811111111	60	6	19.5	25.5
15.197	0	1	response	83	1	221.303485185185	211.5066	207.337811111111	60	6	19.5	25.5
15.197	0.5	1	feedback	83	1	221.303485185185	211.5066	207.337811111111	60	6	19.5	25.5
22.989	4.004	2	valuation	245	2	236.351107407407	213.134562962963	179.092744444444	560	4.032	0.784	37.072
26.993	1.44	2	rating	245	2	236.351107407407	213.134562962963	179.092744444444	560	4.032	0.784	37.072
28.433	0	2	response	245	2	236.351107407407	213.134562962963	179.092744444444	560	4.032	0.784	37.072
28.433	0.5	2	feedback	245	2	236.351107407407	213.134562962963	179.092744444444	560	4.032	0.784	37.072
35.714	4.021	3	valuation	11	1	241.980125925926	232.602592592593	207.044166666667	300	52.47	68.61	0.45
39.735	1.776	3	rating	11	1	241.980125925926	232.602592592593	207.044166666667	300	52.47	68.61	0.45
41.511	0	3	response	11	1	241.980125925926	232.602592592593	207.044166666667	300	52.47	68.61	0.45
41.511	0.5	3	feedback	11	1	241.980125925926	232.602592592593	207.044166666667	300	52.47	68.61	0.45
44.23	4.003	4	valuation	374	2	229.180462962963	210.759655555556	188.154422222222	65	4.03	8.775	29.77
48.233	1.308	4	rating	374	2	229.180462962963	210.759655555556	188.154422222222	65	4.03	8.775	29.77
49.541	0	4	response	374	2	229.180462962963	210.759655555556	188.154422222222	65	4.03	8.775	29.77
49.541	0.5	4	feedback	374	2	229.180462962963	210.759655555556	188.154422222222	65	4.03	8.775	29.77
55.274	4.005	5	valuation	147	1	237.128222222222	225.726059259259	223.239396296296	30	1.38	0.06	23.88
59.279	1.16399999999999	5	rating	147	1	237.128222222222	225.726059259259	223.239396296296	30	1.38	0.06	23.88
60.443	0	5	response	147	1	237.128222222222	225.726059259259	223.239396296296	30	1.38	0.06	23.88
60.443	0.5	5	feedback	147	1	237.128222222222	225.726059259259	223.239396296296	30	1.38	0.06	23.88
67.34	4.00399999999999	6	valuation	271	1	240.993555555556	242.719611111111	236.07897037037	5	0.088	0.0145	0.1645
71.344	0.832000000000008	6	rating	271	1	240.993555555556	242.719611111111	236.07897037037	5	0.088	0.0145	0.1645
72.176	0	6	response	271	1	240.993555555556	242.719611111111	236.07897037037	5	0.088	0.0145	0.1645
72.176	0.5	6	feedback	271	1	240.993555555556	242.719611111111	236.07897037037	5	0.088	0.0145	0.1645
77.529	4.021	7	valuation	417	2	205.155022222222	227.402596296296	179.027196296296	80	0	0	5.6
81.55	0.835999999999999	7	rating	417	2	205.155022222222	227.402596296296	179.027196296296	80	0	0	5.6
82.386	0	7	response	417	2	205.155022222222	227.402596296296	179.027196296296	80	0	0	5.6
82.386	0.5	7	feedback	417	2	205.155022222222	227.402596296296	179.027196296296	80	0	0	5.6
87.098	4.004	8	valuation	151	2	241.193903703704	224.897437037037	187.470951851852	150	7.95	34.5	78
91.102	0.849999999999994	8	rating	151	2	241.193903703704	224.897437037037	187.470951851852	150	7.95	34.5	78
91.952	0	8	response	151	2	241.193903703704	224.897437037037	187.470951851852	150	7.95	34.5	78
91.952	0.5	8	feedback	151	2	241.193903703704	224.897437037037	187.470951851852	150	7.95	34.5	78
96.155	4.004	9	valuation	237	3	244.841388888889	243.758411111111	238.652048148148	350	31.15	35	13.3
100.159	0.926999999999992	9	rating	237	3	244.841388888889	243.758411111111	238.652048148148	350	31.15	35	13.3
101.086	0	9	response	237	3	244.841388888889	243.758411111111	238.652048148148	350	31.15	35	13.3
101.086	0.5	9	feedback	237	3	244.841388888889	243.758411111111	238.652048148148	350	31.15	35	13.3
109.378	4.006	10	valuation	226	1	238.889974074074	236.237140740741	230.784377777778	200	24	5	124
113.384	0.689999999999998	10	rating	226	1	238.889974074074	236.237140740741	230.784377777778	200	24	5	124
114.074	0	10	response	226	1	238.889974074074	236.237140740741	230.784377777778	200	24	5	124
114.074	0.5	10	feedback	226	1	238.889974074074	236.237140740741	230.784377777778	200	24	5	124
117.382	4.00399999999999	11	valuation	215	1	226.313933333333	219.814351851852	192.275048148148	50	0.391	0.073	1.969
121.386	0.618000000000009	11	rating	215	1	226.313933333333	219.814351851852	192.275048148148	50	0.391	0.073	1.969
122.004	0	11	response	215	1	226.313933333333	219.814351851852	192.275048148148	50	0.391	0.073	1.969
122.004	0.5	11	feedback	215	1	226.313933333333	219.814351851852	192.275048148148	50	0.391	0.073	1.969
126.975	4.02100000000002	12	valuation	490	1	238.84767037037	229.513007407407	193.213766666667	40	1	0.42	5.2
130.996	0.605999999999995	12	rating	490	1	238.84767037037	229.513007407407	193.213766666667	40	1	0.42	5.2
131.602	0	12	response	490	1	238.84767037037	229.513007407407	193.213766666667	40	1	0.42	5.2
131.602	0.5	12	feedback	490	1	238.84767037037	229.513007407407	193.213766666667	40	1	0.42	5.2
140.014	4.005	13	valuation	287	3	232.806955555556	223.940555555556	218.412614814815	58	2.494	9.918	39.962
144.019	1.69800000000001	13	rating	287	3	232.806955555556	223.940555555556	218.412614814815	58	2.494	9.918	39.962
145.717	0	13	response	287	3	232.806955555556	223.940555555556	218.412614814815	58	2.494	9.918	39.962
145.717	0.5	13	feedback	287	3	232.806955555556	223.940555555556	218.412614814815	58	2.494	9.918	39.962
148.288	4.005	14	valuation	557	3	230.600685185185	222.170681481481	216.855614814815	750	90	55.5	11.25
152.293	1.01900000000001	14	rating	557	3	230.600685185185	222.170681481481	216.855614814815	750	90	55.5	11.25
153.312	0	14	response	557	3	230.600685185185	222.170681481481	216.855614814815	750	90	55.5	11.25
153.312	0.5	14	feedback	557	3	230.600685185185	222.170681481481	216.855614814815	750	90	55.5	11.25
156.111	4.01900000000001	15	valuation	162	3	175.828844444444	170.449585185185	170.038607407407	140	7	32.2	72.8
160.13	0.685000000000002	15	rating	162	3	175.828844444444	170.449585185185	170.038607407407	140	7	32.2	72.8
160.815	0	15	response	162	3	175.828844444444	170.449585185185	170.038607407407	140	7	32.2	72.8
160.815	0.5	15	feedback	162	3	175.828844444444	170.449585185185	170.038607407407	140	7	32.2	72.8
166.826	4.00400000000002	16	valuation	348	3	221.590448148148	199.02867037037	166.121214814815	10	0.919	0.43	7.141
170.83	0.690999999999974	16	rating	348	3	221.590448148148	199.02867037037	166.121214814815	10	0.919	0.43	7.141
171.521	0	16	response	348	3	221.590448148148	199.02867037037	166.121214814815	10	0.919	0.43	7.141
171.521	0.5	16	feedback	348	3	221.590448148148	199.02867037037	166.121214814815	10	0.919	0.43	7.141
178.299	4.00399999999999	17	valuation	67	1	228.945522222222	220.155659259259	202.818633333333	150	4.5	7.5	45
182.303	0.552999999999997	17	rating	67	1	228.945522222222	220.155659259259	202.818633333333	150	4.5	7.5	45
182.856	0	17	response	67	1	228.945522222222	220.155659259259	202.818633333333	150	4.5	7.5	45
182.856	0.5	17	feedback	67	1	228.945522222222	220.155659259259	202.818633333333	150	4.5	7.5	45
187.204	4.017	18	valuation	132	1	233.748444444444	222.715862962963	197.658111111111	350	101.5	105	0
191.221	0.50800000000001	18	rating	132	1	233.748444444444	222.715862962963	197.658111111111	350	101.5	105	0
191.729	0	18	response	132	1	233.748444444444	222.715862962963	197.658111111111	350	101.5	105	0
191.729	0.5	18	feedback	132	1	233.748444444444	222.715862962963	197.658111111111	350	101.5	105	0
196.325	4.02100000000002	19	valuation	474	2	239.237377777778	219.415959259259	196.508911111111	105	5.7015	34.3035	44.8035
200.346	1.86799999999999	19	rating	474	2	239.237377777778	219.415959259259	196.508911111111	105	5.7015	34.3035	44.8035
202.214	0	19	response	474	2	239.237377777778	219.415959259259	196.508911111111	105	5.7015	34.3035	44.8035
202.214	0.5	19	feedback	474	2	239.237377777778	219.415959259259	196.508911111111	105	5.7015	34.3035	44.8035
206.16	4.00300000000001	20	valuation	56	2	230.325433333333	221.73747037037	215.9782	150	6	16.005	40.005
210.163	1.21199999999999	20	rating	56	2	230.325433333333	221.73747037037	215.9782	150	6	16.005	40.005
211.375	0	20	response	56	2	230.325433333333	221.73747037037	215.9782	150	6	16.005	40.005
211.375	0.5	20	feedback	56	2	230.325433333333	221.73747037037	215.9782	150	6	16.005	40.005
219.934	4.00399999999999	21	valuation	377	3	239.679737037037	207.307562962963	170.026059259259	60	4.8	11.82	27.54
223.938	0.636000000000024	21	rating	377	3	239.679737037037	207.307562962963	170.026059259259	60	4.8	11.82	27.54
224.574	0	21	response	377	3	239.679737037037	207.307562962963	170.026059259259	60	4.8	11.82	27.54
224.574	0.5	21	feedback	377	3	239.679737037037	207.307562962963	170.026059259259	60	4.8	11.82	27.54
230.449	4.00699999999998	22	valuation	243	2	224.162848148148	201.069314814815	190.81787037037	110	0.858	0.429	5.863
234.456	1.08600000000001	22	rating	243	2	224.162848148148	201.069314814815	190.81787037037	110	0.858	0.429	5.863
235.542	0	22	response	243	2	224.162848148148	201.069314814815	190.81787037037	110	0.858	0.429	5.863
235.542	0.5	22	feedback	243	2	224.162848148148	201.069314814815	190.81787037037	110	0.858	0.429	5.863
240.639	4.005	23	valuation	308	3	249.816566666667	222.548488888889	208.410192592593	30	5.28	0.69	10.65
244.644	0.748999999999995	23	rating	308	3	249.816566666667	222.548488888889	208.410192592593	30	5.28	0.69	10.65
245.393	0	23	response	308	3	249.816566666667	222.548488888889	208.410192592593	30	5.28	0.69	10.65
245.393	0.5	23	feedback	308	3	249.816566666667	222.548488888889	208.410192592593	30	5.28	0.69	10.65
249.084	4.00399999999999	24	valuation	503	2	241.178181481481	220.964318518518	182.183774074074	60	3.42	18.42	34.38
253.088	2.19800000000001	24	rating	503	2	241.178181481481	220.964318518518	182.183774074074	60	3.42	18.42	34.38
255.286	0	24	response	503	2	241.178181481481	220.964318518518	182.183774074074	60	3.42	18.42	34.38
255.286	0.5	24	feedback	503	2	241.178181481481	220.964318518518	182.183774074074	60	3.42	18.42	34.38
262.807	4.00700000000001	25	valuation	28	3	230.415522222222	220.993285185185	214.040340740741	150	6.03	2.82	45.87
266.814	1.56199999999995	25	rating	28	3	230.415522222222	220.993285185185	214.040340740741	150	6.03	2.82	45.87
268.376	0	25	response	28	3	230.415522222222	220.993285185185	214.040340740741	150	6.03	2.82	45.87
268.376	0.5	25	feedback	28	3	230.415522222222	220.993285185185	214.040340740741	150	6.03	2.82	45.87
274.885	4.00400000000002	26	valuation	336	1	180.357381481482	181.934185185185	185.217703703704	20	0.862	0.18	17.232
278.889	0.497000000000014	26	rating	336	1	180.357381481482	181.934185185185	185.217703703704	20	0.862	0.18	17.232
279.386	0	26	response	336	1	180.357381481482	181.934185185185	185.217703703704	20	0.862	0.18	17.232
279.386	0.5	26	feedback	336	1	180.357381481482	181.934185185185	185.217703703704	20	0.862	0.18	17.232
283.222	4.00400000000002	27	valuation	462	1	242.881303703704	224.1234	217.997062962963	3700	666	647.5	11.1
287.226	0.738999999999976	27	rating	462	1	242.881303703704	224.1234	217.997062962963	3700	666	647.5	11.1
287.965	0	27	response	462	1	242.881303703704	224.1234	217.997062962963	3700	666	647.5	11.1
287.965	0.5	27	feedback	462	1	242.881303703704	224.1234	217.997062962963	3700	666	647.5	11.1
293.186	4.00700000000001	28	valuation	548	2	248.893596296296	200.777996296296	179.584162962963	400	76	12	4
297.193	1.72000000000003	28	rating	548	2	248.893596296296	200.777996296296	179.584162962963	400	76	12	4
298.913	0	28	response	548	2	248.893596296296	200.777996296296	179.584162962963	400	76	12	4
298.913	0.5	28	feedback	548	2	248.893596296296	200.777996296296	179.584162962963	400	76	12	4
301.965	4.00400000000002	29	valuation	419	2	243.592155555556	224.027522222222	209.668392592593	700	27.3	89.6	238.7
305.969	2.02100000000002	29	rating	419	2	243.592155555556	224.027522222222	209.668392592593	700	27.3	89.6	238.7
307.99	0	29	response	419	2	243.592155555556	224.027522222222	209.668392592593	700	27.3	89.6	238.7
307.99	0.5	29	feedback	419	2	243.592155555556	224.027522222222	209.668392592593	700	27.3	89.6	238.7
314.246	4.00600000000003	30	valuation	51	1	226.266981481481	216.113044444444	199.440296296296	500	32.05	84.25	212.6
318.252	0.545000000000016	30	rating	51	1	226.266981481481	216.113044444444	199.440296296296	500	32.05	84.25	212.6
318.797	0	30	response	51	1	226.266981481481	216.113044444444	199.440296296296	500	32.05	84.25	212.6
318.797	0.5	30	feedback	51	1	226.266981481481	216.113044444444	199.440296296296	500	32.05	84.25	212.6
324.401	4.00399999999996	31	valuation	272	1	226.874996296296	232.635744444444	227.7664	30	1.074	0.18	0.48
328.405	0.471000000000004	31	rating	272	1	226.874996296296	232.635744444444	227.7664	30	1.074	0.18	0.48
328.876	0	31	response	272	1	226.874996296296	232.635744444444	227.7664	30	1.074	0.18	0.48
328.876	0.5	31	feedback	272	1	226.874996296296	232.635744444444	227.7664	30	1.074	0.18	0.48
335.312	4.00399999999996	32	valuation	203	1	224.25597037037	210.968914814815	202.841022222222	100	1	0.5	6
339.316	1.61900000000003	32	rating	203	1	224.25597037037	210.968914814815	202.841022222222	100	1	0.5	6
340.935	0	32	response	203	1	224.25597037037	210.968914814815	202.841022222222	100	1	0.5	6
340.935	0.5	32	feedback	203	1	224.25597037037	210.968914814815	202.841022222222	100	1	0.5	6
345.03	4.00400000000002	33	valuation	99	3	228.399018518518	221.835125925926	211.244525925926	500	29.5	105	260
349.034	0.600999999999999	33	rating	99	3	228.399018518518	221.835125925926	211.244525925926	500	29.5	105	260
349.635	0	33	response	99	3	228.399018518518	221.835125925926	211.244525925926	500	29.5	105	260
349.635	0.5	33	feedback	99	3	228.399018518518	221.835125925926	211.244525925926	500	29.5	105	260
357.806	4.00600000000003	34	valuation	530	1	226.327088888889	198.306133333333	186.79497037037	40	0.32	0.16	2.2
361.812	0.534999999999968	34	rating	530	1	226.327088888889	198.306133333333	186.79497037037	40	0.32	0.16	2.2
362.347	0	34	response	530	1	226.327088888889	198.306133333333	186.79497037037	40	0.32	0.16	2.2
362.347	0.5	34	feedback	530	1	226.327088888889	198.306133333333	186.79497037037	40	0.32	0.16	2.2
366.81	4.00400000000002	35	valuation	249	2	227.740374074074	228.878825925926	212.286907407407	1900	28.88	3.23	27.55
370.814	0.592999999999961	35	rating	249	2	227.740374074074	228.878825925926	212.286907407407	1900	28.88	3.23	27.55
371.407	0	35	response	249	2	227.740374074074	228.878825925926	212.286907407407	1900	28.88	3.23	27.55
371.407	0.5	35	feedback	249	2	227.740374074074	228.878825925926	212.286907407407	1900	28.88	3.23	27.55
374.588	4.005	36	valuation	220	1	232.438803703704	218.037377777778	193.591122222222	900	7.47	1.71	75.24
378.593	0.536000000000001	36	rating	220	1	232.438803703704	218.037377777778	193.591122222222	900	7.47	1.71	75.24
379.129	0	36	response	220	1	232.438803703704	218.037377777778	193.591122222222	900	7.47	1.71	75.24
379.129	0.5	36	feedback	220	1	232.438803703704	218.037377777778	193.591122222222	900	7.47	1.71	75.24
382.054	4.00300000000004	37	valuation	263	1	232.085611111111	221.1082	211.829974074074	118	2.5842	0.2242	0.531
386.057	0.769000000000005	37	rating	263	1	232.085611111111	221.1082	211.829974074074	118	2.5842	0.2242	0.531
386.826	0	37	response	263	1	232.085611111111	221.1082	211.829974074074	118	2.5842	0.2242	0.531
386.826	0.5	37	feedback	263	1	232.085611111111	221.1082	211.829974074074	118	2.5842	0.2242	0.531
393.473	4.00999999999999	38	valuation	442	1	251.495488888889	214.690540740741	192.511748148148	170	2.21	0.85	10.88
397.483	0.601999999999975	38	rating	442	1	251.495488888889	214.690540740741	192.511748148148	170	2.21	0.85	10.88
398.085	0	38	response	442	1	251.495488888889	214.690540740741	192.511748148148	170	2.21	0.85	10.88
398.085	0.5	38	feedback	442	1	251.495488888889	214.690540740741	192.511748148148	170	2.21	0.85	10.88
405.492	4.00399999999996	39	valuation	172	1	238.078177777778	232.229437037037	229.48592962963	24.9	1.4691	7.1214	14.5665
409.496	1.51400000000001	39	rating	172	1	238.078177777778	232.229437037037	229.48592962963	24.9	1.4691	7.1214	14.5665
411.01	0	39	response	172	1	238.078177777778	232.229437037037	229.48592962963	24.9	1.4691	7.1214	14.5665
411.01	0.5	39	feedback	172	1	238.078177777778	232.229437037037	229.48592962963	24.9	1.4691	7.1214	14.5665
418.19	4.00400000000002	40	valuation	509	1	233.156288888889	230.746048148148	210.392462962963	20	0.54	0.06	1.2
422.194	0.493999999999971	40	rating	509	1	233.156288888889	230.746048148148	210.392462962963	20	0.54	0.06	1.2
422.688	0	40	response	509	1	233.156288888889	230.746048148148	210.392462962963	20	0.54	0.06	1.2
422.688	0.5	40	feedback	509	1	233.156288888889	230.746048148148	210.392462962963	20	0.54	0.06	1.2
430.718	4.01999999999998	41	valuation	160	1	225.912862962963	218.56677037037	216.687185185185	50	4.2	10.75	32.4
434.738	0.478000000000009	41	rating	160	1	225.912862962963	218.56677037037	216.687185185185	50	4.2	10.75	32.4
435.216	0	41	response	160	1	225.912862962963	218.56677037037	216.687185185185	50	4.2	10.75	32.4
435.216	0.5	41	feedback	160	1	225.912862962963	218.56677037037	216.687185185185	50	4.2	10.75	32.4
441.351	4.00600000000003	42	valuation	502	1	228.088985185185	216.029688888889	188.214248148148	35	2.555	0.07	2.8
445.357	0.637	42	rating	502	1	228.088985185185	216.029688888889	188.214248148148	35	2.555	0.07	2.8
445.994	0	42	response	502	1	228.088985185185	216.029688888889	188.214248148148	35	2.555	0.07	2.8
445.994	0.5	42	feedback	502	1	228.088985185185	216.029688888889	188.214248148148	35	2.555	0.07	2.8
453.914	4.005	43	valuation	209	1	194.382207407407	176.692622222222	173.605392592593	150	1.5	0.75	9
457.919	0.513000000000034	43	rating	209	1	194.382207407407	176.692622222222	173.605392592593	150	1.5	0.75	9
458.432	0	43	response	209	1	194.382207407407	176.692622222222	173.605392592593	150	1.5	0.75	9
458.432	0.5	43	feedback	209	1	194.382207407407	176.692622222222	173.605392592593	150	1.5	0.75	9
461.994	4.00399999999996	44	valuation	106	3	195.295644444444	163.75657037037	154.613781481481	750	40.5	115.5	386.25
465.998	0.887	44	rating	106	3	195.295644444444	163.75657037037	154.613781481481	750	40.5	115.5	386.25
466.885	0	44	response	106	3	195.295644444444	163.75657037037	154.613781481481	750	40.5	115.5	386.25
466.885	0.5	44	feedback	106	3	195.295644444444	163.75657037037	154.613781481481	750	40.5	115.5	386.25
470.322	4.00400000000002	45	valuation	314	2	233.865662962963	212.069914814815	199.556859259259	320	20.48	5.184	33.824
474.326	0.640999999999963	45	rating	314	2	233.865662962963	212.069914814815	199.556859259259	320	20.48	5.184	33.824
474.967	0	45	response	314	2	233.865662962963	212.069914814815	199.556859259259	320	20.48	5.184	33.824
474.967	0.5	45	feedback	314	2	233.865662962963	212.069914814815	199.556859259259	320	20.48	5.184	33.824
480.459	4.00299999999999	46	valuation	421	3	235.056318518519	197.617114814815	196.365037037037	120	3.72	12.72	33.84
484.462	0.5	46	rating	421	3	235.056318518519	197.617114814815	196.365037037037	120	3.72	12.72	33.84
484.962	0	46	response	421	3	235.056318518519	197.617114814815	196.365037037037	120	3.72	12.72	33.84
484.962	0.5	46	feedback	421	3	235.056318518519	197.617114814815	196.365037037037	120	3.72	12.72	33.84
489.815	4.02100000000002	47	valuation	389	2	236.718166666667	231.179922222222	208.921581481481	1200	10.8	3.6	100.8
493.836	0.757000000000005	47	rating	389	2	236.718166666667	231.179922222222	208.921581481481	1200	10.8	3.6	100.8
494.593	0	47	response	389	2	236.718166666667	231.179922222222	208.921581481481	1200	10.8	3.6	100.8
494.593	0.5	47	feedback	389	2	236.718166666667	231.179922222222	208.921581481481	1200	10.8	3.6	100.8
502.245	4.00799999999998	48	valuation	268	1	236.044296296296	239.224655555556	218.502122222222	536	6.968	0.3752	12.864
506.253	0.574000000000012	48	rating	268	1	236.044296296296	239.224655555556	218.502122222222	536	6.968	0.3752	12.864
506.827	0	48	response	268	1	236.044296296296	239.224655555556	218.502122222222	536	6.968	0.3752	12.864
506.827	0.5	48	feedback	268	1	236.044296296296	239.224655555556	218.502122222222	536	6.968	0.3752	12.864
