onset	duration	trial_id	trial_type	image_id	rating_value	red	green	blue	gram	protein	fat	carb
10.03	4.006	1	valuation	200	3	240.261533333333	228.197455555556	202.091514814815	560	4.032	0.784	37.072
14.036	0.509	1	rating	200	3	240.261533333333	228.197455555556	202.091514814815	560	4.032	0.784	37.072
14.545	0	1	response	200	3	240.261533333333	228.197455555556	202.091514814815	560	4.032	0.784	37.072
14.545	0.5	1	feedback	200	3	240.261533333333	228.197455555556	202.091514814815	560	4.032	0.784	37.072
19.84	4.005	2	valuation	268	1	236.044296296296	239.224655555556	218.502122222222	536	6.968	0.3752	12.864
23.845	0.836000000000002	2	rating	268	1	236.044296296296	239.224655555556	218.502122222222	536	6.968	0.3752	12.864
24.681	0	2	response	268	1	236.044296296296	239.224655555556	218.502122222222	536	6.968	0.3752	12.864
24.681	0.5	2	feedback	268	1	236.044296296296	239.224655555556	218.502122222222	536	6.968	0.3752	12.864
27.365	4.005	3	valuation	436	1	242.090233333333	230.336774074074	170.7118	85	0.85	0.255	5.695
31.37	1.189	3	rating	436	1	242.090233333333	230.336774074074	170.7118	85	0.85	0.255	5.695
32.559	0	3	response	436	1	242.090233333333	230.336774074074	170.7118	85	0.85	0.255	5.695
32.559	0.5	3	feedback	436	1	242.090233333333	230.336774074074	170.7118	85	0.85	0.255	5.695
35.171	4.003	4	valuation	560	2	247.228659259259	233.032048148148	209.309892592593	60	7.74	9.48	0.42
39.174	0.442	4	rating	560	2	247.228659259259	233.032048148148	209.309892592593	60	7.74	9.48	0.42
39.616	0	4	response	560	2	247.228659259259	233.032048148148	209.309892592593	60	7.74	9.48	0.42
39.616	0.5	4	feedback	560	2	247.228659259259	233.032048148148	209.309892592593	60	7.74	9.48	0.42
47.401	4.014	5	valuation	61	3	217.738881481481	194.702925925926	183.2717	550	36.025	31.02	116.985
51.415	0.612000000000002	5	rating	61	3	217.738881481481	194.702925925926	183.2717	550	36.025	31.02	116.985
52.027	0	5	response	61	3	217.738881481481	194.702925925926	183.2717	550	36.025	31.02	116.985
52.027	0.5	5	feedback	61	3	217.738881481481	194.702925925926	183.2717	550	36.025	31.02	116.985
57.183	4.005	6	valuation	297	4	240.370292592593	234.992296296296	226.224144444444	14	1.4196	3.6904	8.519
61.188	0.535999999999994	6	rating	297	4	240.370292592593	234.992296296296	226.224144444444	14	1.4196	3.6904	8.519
61.724	0	6	response	297	4	240.370292592593	234.992296296296	226.224144444444	14	1.4196	3.6904	8.519
61.724	0.5	6	feedback	297	4	240.370292592593	234.992296296296	226.224144444444	14	1.4196	3.6904	8.519
68.702	4.005	7	valuation	101	4	234.392659259259	231.396951851852	226.88712962963	50	3.3	16.65	23
72.707	0.527000000000001	7	rating	101	4	234.392659259259	231.396951851852	226.88712962963	50	3.3	16.65	23
73.234	0	7	response	101	4	234.392659259259	231.396951851852	226.88712962963	50	3.3	16.65	23
73.234	0.5	7	feedback	101	4	234.392659259259	231.396951851852	226.88712962963	50	3.3	16.65	23
81.661	4.006	8	valuation	31	3	242.689322222222	238.060522222222	230.73662962963	24	1.8672	6.1536	13.6344
85.667	0.501999999999995	8	rating	31	3	242.689322222222	238.060522222222	230.73662962963	24	1.8672	6.1536	13.6344
86.169	0	8	response	31	3	242.689322222222	238.060522222222	230.73662962963	24	1.8672	6.1536	13.6344
86.169	0.5	8	feedback	31	3	242.689322222222	238.060522222222	230.73662962963	24	1.8672	6.1536	13.6344
90.289	4.006	9	valuation	488	4	240.102651851852	228.914944444444	222.975966666667	80	2.88	17.12	42
94.295	0.567999999999998	9	rating	488	4	240.102651851852	228.914944444444	222.975966666667	80	2.88	17.12	42
94.863	0	9	response	488	4	240.102651851852	228.914944444444	222.975966666667	80	2.88	17.12	42
94.863	0.5	9	feedback	488	4	240.102651851852	228.914944444444	222.975966666667	80	2.88	17.12	42
99.538	4.00500000000001	10	valuation	397	2	205.286366666667	197.069281481481	197.402355555556	200	1.4	0.6	31.2
103.543	0.753999999999991	10	rating	397	2	205.286366666667	197.069281481481	197.402355555556	200	1.4	0.6	31.2
104.297	0	10	response	397	2	205.286366666667	197.069281481481	197.402355555556	200	1.4	0.6	31.2
104.297	0.5	10	feedback	397	2	205.286366666667	197.069281481481	197.402355555556	200	1.4	0.6	31.2
107.389	4.004	11	valuation	291	2	246.073059259259	241.529374074074	239.66687037037	11	0.44	3.5431	5.885
111.393	0.918000000000006	11	rating	291	2	246.073059259259	241.529374074074	239.66687037037	11	0.44	3.5431	5.885
112.311	0	11	response	291	2	246.073059259259	241.529374074074	239.66687037037	11	0.44	3.5431	5.885
112.311	0.5	11	feedback	291	2	246.073059259259	241.529374074074	239.66687037037	11	0.44	3.5431	5.885
119.689	4.004	12	valuation	407	1	195.021214814815	188.857881481481	188.417781481481	40	0.48	0.4	1.08
123.693	0.557000000000002	12	rating	407	1	195.021214814815	188.857881481481	188.417781481481	40	0.48	0.4	1.08
124.25	0	12	response	407	1	195.021214814815	188.857881481481	188.417781481481	40	0.48	0.4	1.08
124.25	0.5	12	feedback	407	1	195.021214814815	188.857881481481	188.417781481481	40	0.48	0.4	1.08
130.196	4.00399999999999	13	valuation	501	3	222.844892592593	203.470518518518	188.602844444444	32	1.504	8.96	17.28
134.2	0.654000000000025	13	rating	501	3	222.844892592593	203.470518518518	188.602844444444	32	1.504	8.96	17.28
134.854	0	13	response	501	3	222.844892592593	203.470518518518	188.602844444444	32	1.504	8.96	17.28
134.854	0.5	13	feedback	501	3	222.844892592593	203.470518518518	188.602844444444	32	1.504	8.96	17.28
143.149	4.00800000000001	14	valuation	430	1	215.593651851852	222.744125925926	185.890007407407	650	6.5	1.3	10.205
147.157	0.421999999999997	14	rating	430	1	215.593651851852	222.744125925926	185.890007407407	650	6.5	1.3	10.205
147.579	0	14	response	430	1	215.593651851852	222.744125925926	185.890007407407	650	6.5	1.3	10.205
147.579	0.5	14	feedback	430	1	215.593651851852	222.744125925926	185.890007407407	650	6.5	1.3	10.205
151.047	4.00399999999999	15	valuation	241	1	243.282040740741	236.463888888889	225.625177777778	300	1.41	0.84	34.59
155.051	0.478000000000009	15	rating	241	1	243.282040740741	236.463888888889	225.625177777778	300	1.41	0.84	34.59
155.529	0	15	response	241	1	243.282040740741	236.463888888889	225.625177777778	300	1.41	0.84	34.59
155.529	0.5	15	feedback	241	1	243.282040740741	236.463888888889	225.625177777778	300	1.41	0.84	34.59
160.563	4.00300000000001	16	valuation	552	3	211.985662962963	193.860933333333	181.95027037037	500	60	37	7.5
164.566	0.423000000000002	16	rating	552	3	211.985662962963	193.860933333333	181.95027037037	500	60	37	7.5
164.989	0	16	response	552	3	211.985662962963	193.860933333333	181.95027037037	500	60	37	7.5
164.989	0.5	16	feedback	552	3	211.985662962963	193.860933333333	181.95027037037	500	60	37	7.5
172.256	4.006	17	valuation	510	2	216.084177777778	207.886733333333	199.991722222222	51	1.938	8.466	35.751
176.262	0.549000000000007	17	rating	510	2	216.084177777778	207.886733333333	199.991722222222	51	1.938	8.466	35.751
176.811	0	17	response	510	2	216.084177777778	207.886733333333	199.991722222222	51	1.938	8.466	35.751
176.811	0.5	17	feedback	510	2	216.084177777778	207.886733333333	199.991722222222	51	1.938	8.466	35.751
183.411	4.02199999999999	18	valuation	563	4	205.155837037037	178.38022962963	167.458940740741	210	39.9	6.09	2.73
187.433	0.664000000000016	18	rating	563	4	205.155837037037	178.38022962963	167.458940740741	210	39.9	6.09	2.73
188.097	0	18	response	563	4	205.155837037037	178.38022962963	167.458940740741	210	39.9	6.09	2.73
188.097	0.5	18	feedback	563	4	205.155837037037	178.38022962963	167.458940740741	210	39.9	6.09	2.73
195.206	4.00500000000002	19	valuation	45	3	206.768825925926	193.444144444444	168.1402	250	25.975	24.875	62.525
199.211	0.49199999999999	19	rating	45	3	206.768825925926	193.444144444444	168.1402	250	25.975	24.875	62.525
199.703	0	19	response	45	3	206.768825925926	193.444144444444	168.1402	250	25.975	24.875	62.525
199.703	0.5	19	feedback	45	3	206.768825925926	193.444144444444	168.1402	250	25.975	24.875	62.525
204.216	4.00299999999999	20	valuation	53	2	230.338377777778	209.626933333333	185.39507037037	115	10.5777	11.3735	30.23695
208.219	0.663000000000011	20	rating	53	2	230.338377777778	209.626933333333	185.39507037037	115	10.5777	11.3735	30.23695
208.882	0	20	response	53	2	230.338377777778	209.626933333333	185.39507037037	115	10.5777	11.3735	30.23695
208.882	0.5	20	feedback	53	2	230.338377777778	209.626933333333	185.39507037037	115	10.5777	11.3735	30.23695
214.304	4.00399999999999	21	valuation	547	1	245.712811111111	209.884796296296	186.342037037037	112.5	24.1875	22.5	57.9375
218.308	0.814000000000021	21	rating	547	1	245.712811111111	209.884796296296	186.342037037037	112.5	24.1875	22.5	57.9375
219.122	0	21	response	547	1	245.712811111111	209.884796296296	186.342037037037	112.5	24.1875	22.5	57.9375
219.122	0.5	21	feedback	547	1	245.712811111111	209.884796296296	186.342037037037	112.5	24.1875	22.5	57.9375
222.722	4.005	22	valuation	9	4	232.070888888889	216.652388888889	201.2447	42	3.8178	10.08	23.94
226.727	0.520999999999987	22	rating	9	4	232.070888888889	216.652388888889	201.2447	42	3.8178	10.08	23.94
227.248	0	22	response	9	4	232.070888888889	216.652388888889	201.2447	42	3.8178	10.08	23.94
227.248	0.5	22	feedback	9	4	232.070888888889	216.652388888889	201.2447	42	3.8178	10.08	23.94
233.063	4.00400000000002	23	valuation	133	3	234.072592592593	214.389285185185	203.67647037037	150	1.5	6	45
237.067	0.48399999999998	23	rating	133	3	234.072592592593	214.389285185185	203.67647037037	150	1.5	6	45
237.551	0	23	response	133	3	234.072592592593	214.389285185185	203.67647037037	150	1.5	6	45
237.551	0.5	23	feedback	133	3	234.072592592593	214.389285185185	203.67647037037	150	1.5	6	45
240.361	4.00400000000002	24	valuation	184	3	229.436533333333	217.155248148148	204.94587037037	170	11.56	57.12	85.51
244.365	1.072	24	rating	184	3	229.436533333333	217.155248148148	204.94587037037	170	11.56	57.12	85.51
245.437	0	24	response	184	3	229.436533333333	217.155248148148	204.94587037037	170	11.56	57.12	85.51
245.437	0.5	24	feedback	184	3	229.436533333333	217.155248148148	204.94587037037	170	11.56	57.12	85.51
251.911	4.00399999999999	25	valuation	370	1	219.75152962963	220.928407407407	198.357281481481	120	3.888	0.6	13.8
255.915	0.621999999999986	25	rating	370	1	219.75152962963	220.928407407407	198.357281481481	120	3.888	0.6	13.8
256.537	0	25	response	370	1	219.75152962963	220.928407407407	198.357281481481	120	3.888	0.6	13.8
256.537	0.5	25	feedback	370	1	219.75152962963	220.928407407407	198.357281481481	120	3.888	0.6	13.8
260.273	4.00399999999996	26	valuation	459	1	251.689855555556	242.902355555556	224.653437037037	250	12.75	5.75	105
264.277	0.495000000000005	26	rating	459	1	251.689855555556	242.902355555556	224.653437037037	250	12.75	5.75	105
264.772	0	26	response	459	1	251.689855555556	242.902355555556	224.653437037037	250	12.75	5.75	105
264.772	0.5	26	feedback	459	1	251.689855555556	242.902355555556	224.653437037037	250	12.75	5.75	105
269.154	4.005	27	valuation	269	2	231.128981481482	233.808259259259	209.526407407407	249	0.9711	4.6065	3.6354
273.159	0.781000000000006	27	rating	269	2	231.128981481482	233.808259259259	209.526407407407	249	0.9711	4.6065	3.6354
273.94	0	27	response	269	2	231.128981481482	233.808259259259	209.526407407407	249	0.9711	4.6065	3.6354
273.94	0.5	27	feedback	269	2	231.128981481482	233.808259259259	209.526407407407	249	0.9711	4.6065	3.6354
279.497	4.00399999999996	28	valuation	499	3	223.644125925926	218.803355555555	212.567340740741	18	1.26	6.84	8.46
283.501	0.549000000000035	28	rating	499	3	223.644125925926	218.803355555555	212.567340740741	18	1.26	6.84	8.46
284.05	0	28	response	499	3	223.644125925926	218.803355555555	212.567340740741	18	1.26	6.84	8.46
284.05	0.5	28	feedback	499	3	223.644125925926	218.803355555555	212.567340740741	18	1.26	6.84	8.46
290.268	4.00400000000002	29	valuation	10	2	235.360514814815	227.360366666667	213.76962962963	250	8.35	16.825	40.125
294.272	0.896999999999991	29	rating	10	2	235.360514814815	227.360366666667	213.76962962963	250	8.35	16.825	40.125
295.169	0	29	response	10	2	235.360514814815	227.360366666667	213.76962962963	250	8.35	16.825	40.125
295.169	0.5	29	feedback	10	2	235.360514814815	227.360366666667	213.76962962963	250	8.35	16.825	40.125
298.507	4.005	30	valuation	295	3	239.004677777778	235.214896296296	233.496577777778	37.5	2.025	10.875	22.5
302.512	0.61099999999999	30	rating	295	3	239.004677777778	235.214896296296	233.496577777778	37.5	2.025	10.875	22.5
303.123	0	30	response	295	3	239.004677777778	235.214896296296	233.496577777778	37.5	2.025	10.875	22.5
303.123	0.5	30	feedback	295	3	239.004677777778	235.214896296296	233.496577777778	37.5	2.025	10.875	22.5
311.286	4.00799999999998	31	valuation	562	4	231.3686	211.666466666667	195.852359259259	300	66	15	0
315.294	0.756000000000029	31	rating	562	4	231.3686	211.666466666667	195.852359259259	300	66	15	0
316.05	0	31	response	562	4	231.3686	211.666466666667	195.852359259259	300	66	15	0
316.05	0.5	31	feedback	562	4	231.3686	211.666466666667	195.852359259259	300	66	15	0
320.952	4.00400000000002	32	valuation	238	1	233.399692592593	229.266651851852	211.574737037037	450	1.395	1.8	51.3
324.956	0.861999999999966	32	rating	238	1	233.399692592593	229.266651851852	211.574737037037	450	1.395	1.8	51.3
325.818	0	32	response	238	1	233.399692592593	229.266651851852	211.574737037037	450	1.395	1.8	51.3
325.818	0.5	32	feedback	238	1	233.399692592593	229.266651851852	211.574737037037	450	1.395	1.8	51.3
328.763	4.005	33	valuation	281	4	240.906259259259	242.674366666667	221.759122222222	100	1	0.3	15.6
332.768	0.5	33	rating	281	4	240.906259259259	242.674366666667	221.759122222222	100	1	0.3	15.6
333.268	0	33	response	281	4	240.906259259259	242.674366666667	221.759122222222	100	1	0.3	15.6
333.268	0.5	33	feedback	281	4	240.906259259259	242.674366666667	221.759122222222	100	1	0.3	15.6
338.953	4.00500000000005	34	valuation	270	2	233.577507407407	232.783248148148	213.280811111111	580	15.66	8.7	60.32
342.958	0.603999999999985	34	rating	270	2	233.577507407407	232.783248148148	213.280811111111	580	15.66	8.7	60.32
343.562	0	34	response	270	2	233.577507407407	232.783248148148	213.280811111111	580	15.66	8.7	60.32
343.562	0.5	34	feedback	270	2	233.577507407407	232.783248148148	213.280811111111	580	15.66	8.7	60.32
349.652	4.00400000000002	35	valuation	181	3	229.859518518518	218.530111111111	203.711755555556	250	22.5	15.1	149
353.656	0.538999999999987	35	rating	181	3	229.859518518518	218.530111111111	203.711755555556	250	22.5	15.1	149
354.195	0	35	response	181	3	229.859518518518	218.530111111111	203.711755555556	250	22.5	15.1	149
354.195	0.5	35	feedback	181	3	229.859518518518	218.530111111111	203.711755555556	250	22.5	15.1	149
358.446	4.00399999999996	36	valuation	232	2	177.578688888889	181.550966666667	164.864677777778	100	2.6	0.4	4
362.45	1.64699999999999	36	rating	232	2	177.578688888889	181.550966666667	164.864677777778	100	2.6	0.4	4
364.097	0	36	response	232	2	177.578688888889	181.550966666667	164.864677777778	100	2.6	0.4	4
364.097	0.5	36	feedback	232	2	177.578688888889	181.550966666667	164.864677777778	100	2.6	0.4	4
371.738	4.00799999999998	37	valuation	305	1	206.585207407407	213.726974074074	188.382233333333	90	3.33	0.486	12.663
375.746	0.747000000000014	37	rating	305	1	206.585207407407	213.726974074074	188.382233333333	90	3.33	0.486	12.663
376.493	0	37	response	305	1	206.585207407407	213.726974074074	188.382233333333	90	3.33	0.486	12.663
376.493	0.5	37	feedback	305	1	206.585207407407	213.726974074074	188.382233333333	90	3.33	0.486	12.663
382.829	4.02199999999999	38	valuation	224	1	204.284585185185	186.762425925926	184.890859259259	100	1	0.5	6
386.851	0.995999999999981	38	rating	224	1	204.284585185185	186.762425925926	184.890859259259	100	1	0.5	6
387.847	0	38	response	224	1	204.284585185185	186.762425925926	184.890859259259	100	1	0.5	6
387.847	0.5	38	feedback	224	1	204.284585185185	186.762425925926	184.890859259259	100	1	0.5	6
396.4	4.01000000000005	39	valuation	260	1	229.497492592593	228.931940740741	221.561637037037	150	1.995	0.15	2.145
400.41	0.58299999999997	39	rating	260	1	229.497492592593	228.931940740741	221.561637037037	150	1.995	0.15	2.145
400.993	0	39	response	260	1	229.497492592593	228.931940740741	221.561637037037	150	1.995	0.15	2.145
400.993	0.5	39	feedback	260	1	229.497492592593	228.931940740741	221.561637037037	150	1.995	0.15	2.145
404.853	4.005	40	valuation	378	1	245.6192	237.550818518518	222.0697	500	55.5	40	102
408.858	0.829999999999984	40	rating	378	1	245.6192	237.550818518518	222.0697	500	55.5	40	102
409.688	0	40	response	378	1	245.6192	237.550818518518	222.0697	500	55.5	40	102
409.688	0.5	40	feedback	378	1	245.6192	237.550818518518	222.0697	500	55.5	40	102
417.592	4.00900000000001	41	valuation	561	4	229.343018518519	202.05227037037	188.136077777778	165	33.165	7.425	0.495
421.601	0.701000000000022	41	rating	561	4	229.343018518519	202.05227037037	188.136077777778	165	33.165	7.425	0.495
422.302	0	41	response	561	4	229.343018518519	202.05227037037	188.136077777778	165	33.165	7.425	0.495
422.302	0.5	41	feedback	561	4	229.343018518519	202.05227037037	188.136077777778	165	33.165	7.425	0.495
426.294	4.005	42	valuation	141	3	234.212044444444	208.694414814815	187.429848148148	350	19.95	17.85	45.5
430.299	0.661000000000001	42	rating	141	3	234.212044444444	208.694414814815	187.429848148148	350	19.95	17.85	45.5
430.96	0	42	response	141	3	234.212044444444	208.694414814815	187.429848148148	350	19.95	17.85	45.5
430.96	0.5	42	feedback	141	3	234.212044444444	208.694414814815	187.429848148148	350	19.95	17.85	45.5
434.17	4.00399999999996	43	valuation	173	3	238.459222222222	234.629877777778	232.747222222222	31.5	3.15	10.71	16.695
438.174	0.492000000000019	43	rating	173	3	238.459222222222	234.629877777778	232.747222222222	31.5	3.15	10.71	16.695
438.666	0	43	response	173	3	238.459222222222	234.629877777778	232.747222222222	31.5	3.15	10.71	16.695
438.666	0.5	43	feedback	173	3	238.459222222222	234.629877777778	232.747222222222	31.5	3.15	10.71	16.695
443.429	4.00400000000002	44	valuation	361	1	239.194337037037	196.791448148148	169.356607407407	150	1.95	0.3	7.8
447.433	0.475000000000023	44	rating	361	1	239.194337037037	196.791448148148	169.356607407407	150	1.95	0.3	7.8
447.908	0	44	response	361	1	239.194337037037	196.791448148148	169.356607407407	150	1.95	0.3	7.8
447.908	0.5	44	feedback	361	1	239.194337037037	196.791448148148	169.356607407407	150	1.95	0.3	7.8
454.768	4.01600000000002	45	valuation	446	2	241.791362962963	214.010848148148	202.937925925926	80	0.8	0	2.4
458.784	0.79000000000002	45	rating	446	2	241.791362962963	214.010848148148	202.937925925926	80	0.8	0	2.4
459.574	0	45	response	446	2	241.791362962963	214.010848148148	202.937925925926	80	0.8	0	2.4
459.574	0.5	45	feedback	446	2	241.791362962963	214.010848148148	202.937925925926	80	0.8	0	2.4
467.61	4.00299999999999	46	valuation	544	1	250.596337037037	210.284177777778	204.014044444444	150	29.4	9	0.15
471.613	0.519999999999982	46	rating	544	1	250.596337037037	210.284177777778	204.014044444444	150	29.4	9	0.15
472.133	0	46	response	544	1	250.596337037037	210.284177777778	204.014044444444	150	29.4	9	0.15
472.133	0.5	46	feedback	544	1	250.596337037037	210.284177777778	204.014044444444	150	29.4	9	0.15
479.646	4.00700000000001	47	valuation	541	1	233.812844444444	223.655855555556	214.637522222222	520	109.2	10.4	0
483.653	0.492999999999995	47	rating	541	1	233.812844444444	223.655855555556	214.637522222222	520	109.2	10.4	0
484.146	0	47	response	541	1	233.812844444444	223.655855555556	214.637522222222	520	109.2	10.4	0
484.146	0.5	47	feedback	541	1	233.812844444444	223.655855555556	214.637522222222	520	109.2	10.4	0
