onset	duration	trial_id	trial_type	image_id	rating_value	red	green	blue	gram	protein	fat	carb
10.027	4.004	1	valuation	437	2	227.362862962963	208.736588888889	193.066466666667	800	16	0.88	118.4
14.031	0.546999999999999	1	rating	437	2	227.362862962963	208.736588888889	193.066466666667	800	16	0.88	118.4
14.578	0	1	response	437	2	227.362862962963	208.736588888889	193.066466666667	800	16	0.88	118.4
14.578	0.5	1	feedback	437	2	227.362862962963	208.736588888889	193.066466666667	800	16	0.88	118.4
17.649	4.004	2	valuation	275	2	241.479677777778	205.121166666667	195.675003703704	455	4.095	0.91	11.2385
21.653	0.447000000000003	2	rating	275	2	241.479677777778	205.121166666667	195.675003703704	455	4.095	0.91	11.2385
22.1	0	2	response	275	2	241.479677777778	205.121166666667	195.675003703704	455	4.095	0.91	11.2385
22.1	0.5	2	feedback	275	2	241.479677777778	205.121166666667	195.675003703704	455	4.095	0.91	11.2385
25.047	4.003	3	valuation	71	1	239.094714814815	231.21037037037	209.720744444444	600	156	175.2	0
29.05	0.413999999999998	3	rating	71	1	239.094714814815	231.21037037037	209.720744444444	600	156	175.2	0
29.464	0	3	response	71	1	239.094714814815	231.21037037037	209.720744444444	600	156	175.2	0
29.464	0.5	3	feedback	71	1	239.094714814815	231.21037037037	209.720744444444	600	156	175.2	0
37.04	4.004	4	valuation	11	2	241.980125925926	232.602592592593	207.044166666667	300	52.47	68.61	0.45
41.044	1.167	4	rating	11	2	241.980125925926	232.602592592593	207.044166666667	300	52.47	68.61	0.45
42.211	0	4	response	11	2	241.980125925926	232.602592592593	207.044166666667	300	52.47	68.61	0.45
42.211	0.5	4	feedback	11	2	241.980125925926	232.602592592593	207.044166666667	300	52.47	68.61	0.45
48.201	4.005	5	valuation	564	2	230.5132	217.013485185185	203.650844444444	75	12.975	0.8025	17.4
52.206	0.542999999999999	5	rating	564	2	230.5132	217.013485185185	203.650844444444	75	12.975	0.8025	17.4
52.749	0	5	response	564	2	230.5132	217.013485185185	203.650844444444	75	12.975	0.8025	17.4
52.749	0.5	5	feedback	564	2	230.5132	217.013485185185	203.650844444444	75	12.975	0.8025	17.4
56.188	4.004	6	valuation	427	1	245.42262962963	227.004585185185	206.62447037037	15	2.16	9.375	1.59
60.192	0.597000000000001	6	rating	427	1	245.42262962963	227.004585185185	206.62447037037	15	2.16	9.375	1.59
60.789	0	6	response	427	1	245.42262962963	227.004585185185	206.62447037037	15	2.16	9.375	1.59
60.789	0.5	6	feedback	427	1	245.42262962963	227.004585185185	206.62447037037	15	2.16	9.375	1.59
66.919	4.004	7	valuation	194	2	218.023318518519	218.78382962963	201.719222222222	50	0.435	0.275	4.685
70.923	0.468999999999994	7	rating	194	2	218.023318518519	218.78382962963	201.719222222222	50	0.435	0.275	4.685
71.392	0	7	response	194	2	218.023318518519	218.78382962963	201.719222222222	50	0.435	0.275	4.685
71.392	0.5	7	feedback	194	2	218.023318518519	218.78382962963	201.719222222222	50	0.435	0.275	4.685
79.296	4.00399999999999	8	valuation	184	4	229.436533333333	217.155248148148	204.94587037037	170	11.56	57.12	85.51
83.3	0.573999999999998	8	rating	184	4	229.436533333333	217.155248148148	204.94587037037	170	11.56	57.12	85.51
83.874	0	8	response	184	4	229.436533333333	217.155248148148	204.94587037037	170	11.56	57.12	85.51
83.874	0.5	8	feedback	184	4	229.436533333333	217.155248148148	204.94587037037	170	11.56	57.12	85.51
88.73	4.00399999999999	9	valuation	441	4	195.492359259259	183.08457037037	171.820788888889	55	3.795	14.85	20.02
92.734	0.629000000000005	9	rating	441	4	195.492359259259	183.08457037037	171.820788888889	55	3.795	14.85	20.02
93.363	0	9	response	441	4	195.492359259259	183.08457037037	171.820788888889	55	3.795	14.85	20.02
93.363	0.5	9	feedback	441	4	195.492359259259	183.08457037037	171.820788888889	55	3.795	14.85	20.02
98.329	4.00500000000001	10	valuation	6	2	241.700688888889	234.822918518519	227.331188888889	150	13.545	19.005	42.045
102.334	0.594999999999999	10	rating	6	2	241.700688888889	234.822918518519	227.331188888889	150	13.545	19.005	42.045
102.929	0	10	response	6	2	241.700688888889	234.822918518519	227.331188888889	150	13.545	19.005	42.045
102.929	0.5	10	feedback	6	2	241.700688888889	234.822918518519	227.331188888889	150	13.545	19.005	42.045
106.878	4.004	11	valuation	560	3	247.228659259259	233.032048148148	209.309892592593	60	7.74	9.48	0.42
110.882	0.551999999999992	11	rating	560	3	247.228659259259	233.032048148148	209.309892592593	60	7.74	9.48	0.42
111.434	0	11	response	560	3	247.228659259259	233.032048148148	209.309892592593	60	7.74	9.48	0.42
111.434	0.5	11	feedback	560	3	247.228659259259	233.032048148148	209.309892592593	60	7.74	9.48	0.42
118.193	4.004	12	valuation	408	3	230.645207407407	222.667955555556	206.490044444444	350	35.665	5.11	21.98
122.197	0.445999999999998	12	rating	408	3	230.645207407407	222.667955555556	206.490044444444	350	35.665	5.11	21.98
122.643	0	12	response	408	3	230.645207407407	222.667955555556	206.490044444444	350	35.665	5.11	21.98
122.643	0.5	12	feedback	408	3	230.645207407407	222.667955555556	206.490044444444	350	35.665	5.11	21.98
130.934	4.006	13	valuation	520	2	241.509025925926	241.656559259259	206.112614814815	25	0.25	0.075	1.975
134.94	0.729000000000013	13	rating	520	2	241.509025925926	241.656559259259	206.112614814815	25	0.25	0.075	1.975
135.669	0	13	response	520	2	241.509025925926	241.656559259259	206.112614814815	25	0.25	0.075	1.975
135.669	0.5	13	feedback	520	2	241.509025925926	241.656559259259	206.112614814815	25	0.25	0.075	1.975
138.852	4.00399999999999	14	valuation	148	3	240.700507407407	220.849611111111	192.7112	35	2.345	10.15	21.7
142.856	0.483000000000004	14	rating	148	3	240.700507407407	220.849611111111	192.7112	35	2.345	10.15	21.7
143.339	0	14	response	148	3	240.700507407407	220.849611111111	192.7112	35	2.345	10.15	21.7
143.339	0.5	14	feedback	148	3	240.700507407407	220.849611111111	192.7112	35	2.345	10.15	21.7
146.021	4.00300000000001	15	valuation	444	2	202.930114814815	207.96272962963	188.174996296296	170	1.7	0.51	4.93
150.024	0.598000000000013	15	rating	444	2	202.930114814815	207.96272962963	188.174996296296	170	1.7	0.51	4.93
150.622	0	15	response	444	2	202.930114814815	207.96272962963	188.174996296296	170	1.7	0.51	4.93
150.622	0.5	15	feedback	444	2	202.930114814815	207.96272962963	188.174996296296	170	1.7	0.51	4.93
154.442	4.00399999999999	16	valuation	336	2	180.357381481482	181.934185185185	185.217703703704	20	0.862	0.18	17.232
158.446	1.33099999999999	16	rating	336	2	180.357381481482	181.934185185185	185.217703703704	20	0.862	0.18	17.232
159.777	0	16	response	336	2	180.357381481482	181.934185185185	185.217703703704	20	0.862	0.18	17.232
159.777	0.5	16	feedback	336	2	180.357381481482	181.934185185185	185.217703703704	20	0.862	0.18	17.232
167.426	4.00700000000001	17	valuation	182	3	233.728185185185	230.880155555556	228.577292592593	100	7.3	1.3	77
171.433	0.462999999999994	17	rating	182	3	233.728185185185	230.880155555556	228.577292592593	100	7.3	1.3	77
171.896	0	17	response	182	3	233.728185185185	230.880155555556	228.577292592593	100	7.3	1.3	77
171.896	0.5	17	feedback	182	3	233.728185185185	230.880155555556	228.577292592593	100	7.3	1.3	77
176.229	4.00399999999999	18	valuation	491	4	246.126614814815	236.71137037037	228.555840740741	350	10.255	28	106.61
180.233	0.503999999999991	18	rating	491	4	246.126614814815	236.71137037037	228.555840740741	350	10.255	28	106.61
180.737	0	18	response	491	4	246.126614814815	236.71137037037	228.555840740741	350	10.255	28	106.61
180.737	0.5	18	feedback	491	4	246.126614814815	236.71137037037	228.555840740741	350	10.255	28	106.61
186.981	4.005	19	valuation	554	3	218.795292592593	200.597207407407	189.157607407407	300	60	24	3
190.986	0.740000000000009	19	rating	554	3	218.795292592593	200.597207407407	189.157607407407	300	60	24	3
191.726	0	19	response	554	3	218.795292592593	200.597207407407	189.157607407407	300	60	24	3
191.726	0.5	19	feedback	554	3	218.795292592593	200.597207407407	189.157607407407	300	60	24	3
196.822	4.005	20	valuation	550	2	196.804374074074	204.14227037037	170.654014814815	500	22.25	1.7	16.45
200.827	0.722000000000008	20	rating	550	2	196.804374074074	204.14227037037	170.654014814815	500	22.25	1.7	16.45
201.549	0	20	response	550	2	196.804374074074	204.14227037037	170.654014814815	500	22.25	1.7	16.45
201.549	0.5	20	feedback	550	2	196.804374074074	204.14227037037	170.654014814815	500	22.25	1.7	16.45
206.261	4.00399999999999	21	valuation	369	3	222.308459259259	220.629822222222	219.28912962963	40	9.84	0.08	8.8
210.265	0.694000000000017	21	rating	369	3	222.308459259259	220.629822222222	219.28912962963	40	9.84	0.08	8.8
210.959	0	21	response	369	3	222.308459259259	220.629822222222	219.28912962963	40	9.84	0.08	8.8
210.959	0.5	21	feedback	369	3	222.308459259259	220.629822222222	219.28912962963	40	9.84	0.08	8.8
218.097	4.00999999999999	22	valuation	534	2	241.210433333333	235.60722962963	202.995262962963	130	1.04	0.546	16.38
222.107	0.65100000000001	22	rating	534	2	241.210433333333	235.60722962963	202.995262962963	130	1.04	0.546	16.38
222.758	0	22	response	534	2	241.210433333333	235.60722962963	202.995262962963	130	1.04	0.546	16.38
222.758	0.5	22	feedback	534	2	241.210433333333	235.60722962963	202.995262962963	130	1.04	0.546	16.38
226.973	4.005	23	valuation	160	1	225.912862962963	218.56677037037	216.687185185185	50	4.2	10.75	32.4
230.978	0.632000000000005	23	rating	160	1	225.912862962963	218.56677037037	216.687185185185	50	4.2	10.75	32.4
231.61	0	23	response	160	1	225.912862962963	218.56677037037	216.687185185185	50	4.2	10.75	32.4
231.61	0.5	23	feedback	160	1	225.912862962963	218.56677037037	216.687185185185	50	4.2	10.75	32.4
239.402	4.00800000000001	24	valuation	492	3	230.247018518519	212.301574074074	191.626448148148	489	13.203	42.054	114.915
243.41	0.692000000000007	24	rating	492	3	230.247018518519	212.301574074074	191.626448148148	489	13.203	42.054	114.915
244.102	0	24	response	492	3	230.247018518519	212.301574074074	191.626448148148	489	13.203	42.054	114.915
244.102	0.5	24	feedback	492	3	230.247018518519	212.301574074074	191.626448148148	489	13.203	42.054	114.915
249.839	4.00399999999999	25	valuation	199	3	244.756914814815	225.456751851852	215.303337037037	300	0.78	0.27	10.92
253.843	0.614000000000004	25	rating	199	3	244.756914814815	225.456751851852	215.303337037037	300	0.78	0.27	10.92
254.457	0	25	response	199	3	244.756914814815	225.456751851852	215.303337037037	300	0.78	0.27	10.92
254.457	0.5	25	feedback	199	3	244.756914814815	225.456751851852	215.303337037037	300	0.78	0.27	10.92
258.021	4.00399999999996	26	valuation	230	2	242.721044444444	217.309944444444	187.067733333333	1360	9.792	1.904	90.032
262.025	0.595000000000027	26	rating	230	2	242.721044444444	217.309944444444	187.067733333333	1360	9.792	1.904	90.032
262.62	0	26	response	230	2	242.721044444444	217.309944444444	187.067733333333	1360	9.792	1.904	90.032
262.62	0.5	26	feedback	230	2	242.721044444444	217.309944444444	187.067733333333	1360	9.792	1.904	90.032
269.516	4.00799999999998	27	valuation	388	2	251.513644444444	251.240011111111	248.662714814815	150	0.15	0	3.9
273.524	0.841000000000008	27	rating	388	2	251.513644444444	251.240011111111	248.662714814815	150	0.15	0	3.9
274.365	0	27	response	388	2	251.513644444444	251.240011111111	248.662714814815	150	0.15	0	3.9
274.365	0.5	27	feedback	388	2	251.513644444444	251.240011111111	248.662714814815	150	0.15	0	3.9
281.376	4.00400000000002	28	valuation	261	2	246.434914814815	242.048607407407	231.333162962963	80	4.24	0.96	3.744
285.38	0.663000000000011	28	rating	261	2	246.434914814815	242.048607407407	231.333162962963	80	4.24	0.96	3.744
286.043	0	28	response	261	2	246.434914814815	242.048607407407	231.333162962963	80	4.24	0.96	3.744
286.043	0.5	28	feedback	261	2	246.434914814815	242.048607407407	231.333162962963	80	4.24	0.96	3.744
290.116	4.00400000000002	29	valuation	70	3	243.692159259259	237.458762962963	224.141840740741	150	37.5	40.5	3
294.12	0.487000000000023	29	rating	70	3	243.692159259259	237.458762962963	224.141840740741	150	37.5	40.5	3
294.607	0	29	response	70	3	243.692159259259	237.458762962963	224.141840740741	150	37.5	40.5	3
294.607	0.5	29	feedback	70	3	243.692159259259	237.458762962963	224.141840740741	150	37.5	40.5	3
299.191	4.00600000000003	30	valuation	283	3	223.747351851852	218.659118518519	190.168366666667	250	5	58.75	1
303.197	1.56700000000001	30	rating	283	3	223.747351851852	218.659118518519	190.168366666667	250	5	58.75	1
304.764	0	30	response	283	3	223.747351851852	218.659118518519	190.168366666667	250	5	58.75	1
304.764	0.5	30	feedback	283	3	223.747351851852	218.659118518519	190.168366666667	250	5	58.75	1
311.152	4.00299999999999	31	valuation	290	3	240.033566666667	230.904607407407	213.06617037037	300	15	90.42	187.5
315.155	0.751000000000033	31	rating	290	3	240.033566666667	230.904607407407	213.06617037037	300	15	90.42	187.5
315.906	0	31	response	290	3	240.033566666667	230.904607407407	213.06617037037	300	15	90.42	187.5
315.906	0.5	31	feedback	290	3	240.033566666667	230.904607407407	213.06617037037	300	15	90.42	187.5
319.6	4.00399999999996	32	valuation	495	4	231.2935	207.667585185185	188.174859259259	1120	80.976	12.32	512.96
323.604	0.694999999999993	32	rating	495	4	231.2935	207.667585185185	188.174859259259	1120	80.976	12.32	512.96
324.299	0	32	response	495	4	231.2935	207.667585185185	188.174859259259	1120	80.976	12.32	512.96
324.299	0.5	32	feedback	495	4	231.2935	207.667585185185	188.174859259259	1120	80.976	12.32	512.96
327.621	4.00400000000002	33	valuation	133	3	234.072592592593	214.389285185185	203.67647037037	150	1.5	6	45
331.625	0.519999999999982	33	rating	133	3	234.072592592593	214.389285185185	203.67647037037	150	1.5	6	45
332.145	0	33	response	133	3	234.072592592593	214.389285185185	203.67647037037	150	1.5	6	45
332.145	0.5	33	feedback	133	3	234.072592592593	214.389285185185	203.67647037037	150	1.5	6	45
338.645	4.00600000000003	34	valuation	17	4	210.764488888889	185.949807407407	160.755022222222	720	38.448	64.8	146.16
342.651	0.654999999999973	34	rating	17	4	210.764488888889	185.949807407407	160.755022222222	720	38.448	64.8	146.16
343.306	0	34	response	17	4	210.764488888889	185.949807407407	160.755022222222	720	38.448	64.8	146.16
343.306	0.5	34	feedback	17	4	210.764488888889	185.949807407407	160.755022222222	720	38.448	64.8	146.16
347.785	4.00399999999996	35	valuation	440	3	241.811451851852	219.400740740741	193.191566666667	1100	90.2	13.2	536.8
351.789	0.523000000000025	35	rating	440	3	241.811451851852	219.400740740741	193.191566666667	1100	90.2	13.2	536.8
352.312	0	35	response	440	3	241.811451851852	219.400740740741	193.191566666667	1100	90.2	13.2	536.8
352.312	0.5	35	feedback	440	3	241.811451851852	219.400740740741	193.191566666667	1100	90.2	13.2	536.8
359.719	4.00400000000002	36	valuation	41	3	206.442281481481	198.14667037037	185.634414814815	50	3.91	11.5	21
363.723	0.536000000000001	36	rating	41	3	206.442281481481	198.14667037037	185.634414814815	50	3.91	11.5	21
364.259	0	36	response	41	3	206.442281481481	198.14667037037	185.634414814815	50	3.91	11.5	21
364.259	0.5	36	feedback	41	3	206.442281481481	198.14667037037	185.634414814815	50	3.91	11.5	21
372.803	4.00400000000002	37	valuation	424	2	203.596696296296	216.749440740741	193.937025925926	130	7.02	0.26	20.28
376.807	0.629999999999995	37	rating	424	2	203.596696296296	216.749440740741	193.937025925926	130	7.02	0.26	20.28
377.437	0	37	response	424	2	203.596696296296	216.749440740741	193.937025925926	130	7.02	0.26	20.28
377.437	0.5	37	feedback	424	2	203.596696296296	216.749440740741	193.937025925926	130	7.02	0.26	20.28
385.852	4.01000000000005	38	valuation	309	3	239.528037037037	219.687762962963	199.263762962963	300	54	22.83	51.9
389.862	0.652999999999963	38	rating	309	3	239.528037037037	219.687762962963	199.263762962963	300	54	22.83	51.9
390.515	0	38	response	309	3	239.528037037037	219.687762962963	199.263762962963	300	54	22.83	51.9
390.515	0.5	38	feedback	309	3	239.528037037037	219.687762962963	199.263762962963	300	54	22.83	51.9
397.798	4.00400000000002	39	valuation	480	3	235.824840740741	211.983703703704	198.319703703704	570	42.18	7.98	288.42
401.802	0.578999999999951	39	rating	480	3	235.824840740741	211.983703703704	198.319703703704	570	42.18	7.98	288.42
402.381	0	39	response	480	3	235.824840740741	211.983703703704	198.319703703704	570	42.18	7.98	288.42
402.381	0.5	39	feedback	480	3	235.824840740741	211.983703703704	198.319703703704	570	42.18	7.98	288.42
408.003	4.005	40	valuation	486	4	228.249133333333	213.26007037037	195.862514814815	540	50.274	64.638	103.464
412.008	0.624000000000024	40	rating	486	4	228.249133333333	213.26007037037	195.862514814815	540	50.274	64.638	103.464
412.632	0	40	response	486	4	228.249133333333	213.26007037037	195.862514814815	540	50.274	64.638	103.464
412.632	0.5	40	feedback	486	4	228.249133333333	213.26007037037	195.862514814815	540	50.274	64.638	103.464
418.495	4.00400000000002	41	valuation	463	2	225.503992592593	202.423722222222	163.526196296296	1020	12.036	4.488	132.396
422.499	0.555999999999983	41	rating	463	2	225.503992592593	202.423722222222	163.526196296296	1020	12.036	4.488	132.396
423.055	0	41	response	463	2	225.503992592593	202.423722222222	163.526196296296	1020	12.036	4.488	132.396
423.055	0.5	41	feedback	463	2	225.503992592593	202.423722222222	163.526196296296	1020	12.036	4.488	132.396
429.684	4.00599999999997	42	valuation	187	3	243.599374074074	219.512066666667	207.100203703704	70	3.64	13.16	25.13
433.69	1.13100000000003	42	rating	187	3	243.599374074074	219.512066666667	207.100203703704	70	3.64	13.16	25.13
434.821	0	42	response	187	3	243.599374074074	219.512066666667	207.100203703704	70	3.64	13.16	25.13
434.821	0.5	42	feedback	187	3	243.599374074074	219.512066666667	207.100203703704	70	3.64	13.16	25.13
440.3	4.00700000000001	43	valuation	267	3	227.865096296296	232.796862962963	224.333814814815	220	0.946	0.308	2.86
444.307	1.22399999999999	43	rating	267	3	227.865096296296	232.796862962963	224.333814814815	220	0.946	0.308	2.86
445.531	0	43	response	267	3	227.865096296296	232.796862962963	224.333814814815	220	0.946	0.308	2.86
445.531	0.5	43	feedback	267	3	227.865096296296	232.796862962963	224.333814814815	220	0.946	0.308	2.86
453.708	4.005	44	valuation	517	3	246.386655555556	237.275566666667	210.835722222222	150	40.5	48	0
457.713	0.414999999999964	44	rating	517	3	246.386655555556	237.275566666667	210.835722222222	150	40.5	48	0
458.128	0	44	response	517	3	246.386655555556	237.275566666667	210.835722222222	150	40.5	48	0
458.128	0.5	44	feedback	517	3	246.386655555556	237.275566666667	210.835722222222	150	40.5	48	0
466.161	4.00799999999998	45	valuation	15	3	239.67817037037	223.601403703704	203.338314814815	200	12.8	80.8	80
470.169	0.472000000000037	45	rating	15	3	239.67817037037	223.601403703704	203.338314814815	200	12.8	80.8	80
470.641	0	45	response	15	3	239.67817037037	223.601403703704	203.338314814815	200	12.8	80.8	80
470.641	0.5	45	feedback	15	3	239.67817037037	223.601403703704	203.338314814815	200	12.8	80.8	80
475.997	4.005	46	valuation	379	3	245.378422222222	237.3909	194.78592962963	594	6.831	1.0692	127.0566
480.002	0.572999999999979	46	rating	379	3	245.378422222222	237.3909	194.78592962963	594	6.831	1.0692	127.0566
480.575	0	46	response	379	3	245.378422222222	237.3909	194.78592962963	594	6.831	1.0692	127.0566
480.575	0.5	46	feedback	379	3	245.378422222222	237.3909	194.78592962963	594	6.831	1.0692	127.0566
485.812	4.005	47	valuation	88	3	222.0952	211.404422222222	204.146240740741	90	2.79	19.08	25.92
489.817	0.658000000000015	47	rating	88	3	222.0952	211.404422222222	204.146240740741	90	2.79	19.08	25.92
490.475	0	47	response	88	3	222.0952	211.404422222222	204.146240740741	90	2.79	19.08	25.92
490.475	0.5	47	feedback	88	3	222.0952	211.404422222222	204.146240740741	90	2.79	19.08	25.92
493.018	4.00400000000002	48	valuation	48	4	225.469518518518	207.606522222222	178.779862962963	320	25.088	36.992	119.392
497.022	0.561000000000035	48	rating	48	4	225.469518518518	207.606522222222	178.779862962963	320	25.088	36.992	119.392
497.583	0	48	response	48	4	225.469518518518	207.606522222222	178.779862962963	320	25.088	36.992	119.392
497.583	0.5	48	feedback	48	4	225.469518518518	207.606522222222	178.779862962963	320	25.088	36.992	119.392
