onset	duration	trial_id	trial_type	image_id	rating_value	red	green	blue	gram	protein	fat	carb
10.046	4.005	1	valuation	310	4	242.471503703704	215.496444444444	180.650911111111	65	9.1455	2.548	34.099
14.051	0.702	1	rating	310	4	242.471503703704	215.496444444444	180.650911111111	65	9.1455	2.548	34.099
14.753	0	1	response	310	4	242.471503703704	215.496444444444	180.650911111111	65	9.1455	2.548	34.099
14.753	0.5	1	feedback	310	4	242.471503703704	215.496444444444	180.650911111111	65	9.1455	2.548	34.099
17.427	4.004	2	valuation	106	4	195.295644444444	163.75657037037	154.613781481481	750	40.5	115.5	386.25
21.431	0.727	2	rating	106	4	195.295644444444	163.75657037037	154.613781481481	750	40.5	115.5	386.25
22.158	0	2	response	106	4	195.295644444444	163.75657037037	154.613781481481	750	40.5	115.5	386.25
22.158	0.5	2	feedback	106	4	195.295644444444	163.75657037037	154.613781481481	750	40.5	115.5	386.25
25.482	4.005	3	valuation	175	2	245.393781481482	241.954911111111	226.525148148148	150	25.5	48.75	1.5
29.487	0.609000000000002	3	rating	175	2	245.393781481482	241.954911111111	226.525148148148	150	25.5	48.75	1.5
30.096	0	3	response	175	2	245.393781481482	241.954911111111	226.525148148148	150	25.5	48.75	1.5
30.096	0.5	3	feedback	175	2	245.393781481482	241.954911111111	226.525148148148	150	25.5	48.75	1.5
34.913	4.003	4	valuation	353	3	221.726211111111	171.561951851852	159.048618518519	107	1.712	1.498	22.042
38.916	1.782	4	rating	353	3	221.726211111111	171.561951851852	159.048618518519	107	1.712	1.498	22.042
40.698	0	4	response	353	3	221.726211111111	171.561951851852	159.048618518519	107	1.712	1.498	22.042
40.698	0.5	4	feedback	353	3	221.726211111111	171.561951851852	159.048618518519	107	1.712	1.498	22.042
47.674	6.505	5	miss	170	0	235.570562962963	230.660907407407	228.13822962963	18.8	0.94	6.6928	10.528
62.093	4.006	6	valuation	424	1	203.596696296296	216.749440740741	193.937025925926	130	7.02	0.26	20.28
66.099	0.98299999999999	6	rating	424	1	203.596696296296	216.749440740741	193.937025925926	130	7.02	0.26	20.28
67.082	0	6	response	424	1	203.596696296296	216.749440740741	193.937025925926	130	7.02	0.26	20.28
67.082	0.5	6	feedback	424	1	203.596696296296	216.749440740741	193.937025925926	130	7.02	0.26	20.28
70.29	4.005	7	valuation	88	4	222.0952	211.404422222222	204.146240740741	90	2.79	19.08	25.92
74.295	1.17399999999999	7	rating	88	4	222.0952	211.404422222222	204.146240740741	90	2.79	19.08	25.92
75.469	0	7	response	88	4	222.0952	211.404422222222	204.146240740741	90	2.79	19.08	25.92
75.469	0.5	7	feedback	88	4	222.0952	211.404422222222	204.146240740741	90	2.79	19.08	25.92
82.053	4.004	8	valuation	459	2	251.689855555556	242.902355555556	224.653437037037	250	12.75	5.75	105
86.057	1.71299999999999	8	rating	459	2	251.689855555556	242.902355555556	224.653437037037	250	12.75	5.75	105
87.77	0	8	response	459	2	251.689855555556	242.902355555556	224.653437037037	250	12.75	5.75	105
87.77	0.5	8	feedback	459	2	251.689855555556	242.902355555556	224.653437037037	250	12.75	5.75	105
92.419	4.004	9	valuation	33	3	232.182151851852	225.755218518519	210.883362962963	250	8.35	16.825	40.125
96.423	1.29599999999999	9	rating	33	3	232.182151851852	225.755218518519	210.883362962963	250	8.35	16.825	40.125
97.719	0	9	response	33	3	232.182151851852	225.755218518519	210.883362962963	250	8.35	16.825	40.125
97.719	0.5	9	feedback	33	3	232.182151851852	225.755218518519	210.883362962963	250	8.35	16.825	40.125
102.087	4.00399999999999	10	valuation	135	4	215.705422222222	199.328881481481	177.362159259259	180	10.62	37.8	93.6
106.091	0.835000000000008	10	rating	135	4	215.705422222222	199.328881481481	177.362159259259	180	10.62	37.8	93.6
106.926	0	10	response	135	4	215.705422222222	199.328881481481	177.362159259259	180	10.62	37.8	93.6
106.926	0.5	10	feedback	135	4	215.705422222222	199.328881481481	177.362159259259	180	10.62	37.8	93.6
110.904	4.00500000000001	11	valuation	292	2	246.005559259259	239.527840740741	231.734640740741	60	5.34	0.42	30.84
114.909	1.16099999999999	11	rating	292	2	246.005559259259	239.527840740741	231.734640740741	60	5.34	0.42	30.84
116.07	0	11	response	292	2	246.005559259259	239.527840740741	231.734640740741	60	5.34	0.42	30.84
116.07	0.5	11	feedback	292	2	246.005559259259	239.527840740741	231.734640740741	60	5.34	0.42	30.84
119.919	4.004	12	valuation	87	4	223.286288888889	209.11392962963	188.684481481482	236	28.32	28.32	33.04
123.923	0.584999999999994	12	rating	87	4	223.286288888889	209.11392962963	188.684481481482	236	28.32	28.32	33.04
124.508	0	12	response	87	4	223.286288888889	209.11392962963	188.684481481482	236	28.32	28.32	33.04
124.508	0.5	12	feedback	87	4	223.286288888889	209.11392962963	188.684481481482	236	28.32	28.32	33.04
128.759	4.00400000000002	13	valuation	47	4	234.398955555556	215.853603703704	189.506048148148	600	93.6	62.4	58.8
132.763	0.668000000000006	13	rating	47	4	234.398955555556	215.853603703704	189.506048148148	600	93.6	62.4	58.8
133.431	0	13	response	47	4	234.398955555556	215.853603703704	189.506048148148	600	93.6	62.4	58.8
133.431	0.5	13	feedback	47	4	234.398955555556	215.853603703704	189.506048148148	600	93.6	62.4	58.8
137.166	4.00399999999999	14	valuation	315	3	234.732062962963	205.436585185185	188.322903703704	120	16.476	4.992	2.82
141.17	1.06500000000003	14	rating	315	3	234.732062962963	205.436585185185	188.322903703704	120	16.476	4.992	2.82
142.235	0	14	response	315	3	234.732062962963	205.436585185185	188.322903703704	120	16.476	4.992	2.82
142.235	0.5	14	feedback	315	3	234.732062962963	205.436585185185	188.322903703704	120	16.476	4.992	2.82
144.79	4.005	15	valuation	146	3	242.953496296296	228.415333333333	203.3177	100	6.8	9.4	34.3
148.795	0.916000000000025	15	rating	146	3	242.953496296296	228.415333333333	203.3177	100	6.8	9.4	34.3
149.711	0	15	response	146	3	242.953496296296	228.415333333333	203.3177	100	6.8	9.4	34.3
149.711	0.5	15	feedback	146	3	242.953496296296	228.415333333333	203.3177	100	6.8	9.4	34.3
154.993	4.00400000000002	16	valuation	454	3	219.902148148148	220.933455555556	200.841318518518	450	1.8	0.9	55.8
158.997	0.986999999999995	16	rating	454	3	219.902148148148	220.933455555556	200.841318518518	450	1.8	0.9	55.8
159.984	0	16	response	454	3	219.902148148148	220.933455555556	200.841318518518	450	1.8	0.9	55.8
159.984	0.5	16	feedback	454	3	219.902148148148	220.933455555556	200.841318518518	450	1.8	0.9	55.8
167.223	4.005	17	valuation	386	2	237.719740740741	229.815822222222	191.553751851852	350	1.295	0.245	6.055
171.228	0.477000000000004	17	rating	386	2	237.719740740741	229.815822222222	191.553751851852	350	1.295	0.245	6.055
171.705	0	17	response	386	2	237.719740740741	229.815822222222	191.553751851852	350	1.295	0.245	6.055
171.705	0.5	17	feedback	386	2	237.719740740741	229.815822222222	191.553751851852	350	1.295	0.245	6.055
174.768	4.00399999999999	18	valuation	34	4	231.769207407407	217.87617037037	204.482866666667	380	74.784	132.392	13.49
178.772	0.814999999999998	18	rating	34	4	231.769207407407	217.87617037037	204.482866666667	380	74.784	132.392	13.49
179.587	0	18	response	34	4	231.769207407407	217.87617037037	204.482866666667	380	74.784	132.392	13.49
179.587	0.5	18	feedback	34	4	231.769207407407	217.87617037037	204.482866666667	380	74.784	132.392	13.49
185.272	4.006	19	valuation	4	3	241.6334	235.246888888889	224.08042962963	19	1.178	4.94	11.97
189.278	0.979000000000013	19	rating	4	3	241.6334	235.246888888889	224.08042962963	19	1.178	4.94	11.97
190.257	0	19	response	4	3	241.6334	235.246888888889	224.08042962963	19	1.178	4.94	11.97
190.257	0.5	19	feedback	4	3	241.6334	235.246888888889	224.08042962963	19	1.178	4.94	11.97
195.821	4.00399999999999	20	valuation	457	2	235.866196296296	213.29577037037	187.122566666667	60	10.62	30.24	6.12
199.825	0.597000000000008	20	rating	457	2	235.866196296296	213.29577037037	187.122566666667	60	10.62	30.24	6.12
200.422	0	20	response	457	2	235.866196296296	213.29577037037	187.122566666667	60	10.62	30.24	6.12
200.422	0.5	20	feedback	457	2	235.866196296296	213.29577037037	187.122566666667	60	10.62	30.24	6.12
203.373	4.00400000000002	21	valuation	11	2	241.980125925926	232.602592592593	207.044166666667	300	52.47	68.61	0.45
207.377	0.637	21	rating	11	2	241.980125925926	232.602592592593	207.044166666667	300	52.47	68.61	0.45
208.014	0	21	response	11	2	241.980125925926	232.602592592593	207.044166666667	300	52.47	68.61	0.45
208.014	0.5	21	feedback	11	2	241.980125925926	232.602592592593	207.044166666667	300	52.47	68.61	0.45
210.829	4.00399999999999	22	valuation	150	2	227.759177777778	224.102914814815	218.988918518519	60	4.62	9.12	31.98
214.833	0.677999999999997	22	rating	150	2	227.759177777778	224.102914814815	218.988918518519	60	4.62	9.12	31.98
215.511	0	22	response	150	2	227.759177777778	224.102914814815	218.988918518519	60	4.62	9.12	31.98
215.511	0.5	22	feedback	150	2	227.759177777778	224.102914814815	218.988918518519	60	4.62	9.12	31.98
221.833	4.005	23	valuation	195	1	242.329581481482	243.653844444444	225.12022962963	11	0.0473	0.0154	0.143
225.838	0.597000000000008	23	rating	195	1	242.329581481482	243.653844444444	225.12022962963	11	0.0473	0.0154	0.143
226.435	0	23	response	195	1	242.329581481482	243.653844444444	225.12022962963	11	0.0473	0.0154	0.143
226.435	0.5	23	feedback	195	1	242.329581481482	243.653844444444	225.12022962963	11	0.0473	0.0154	0.143
234.341	4.00799999999998	24	valuation	541	2	233.812844444444	223.655855555556	214.637522222222	520	109.2	10.4	0
238.349	1.68700000000001	24	rating	541	2	233.812844444444	223.655855555556	214.637522222222	520	109.2	10.4	0
240.036	0	24	response	541	2	233.812844444444	223.655855555556	214.637522222222	520	109.2	10.4	0
240.036	0.5	24	feedback	541	2	233.812844444444	223.655855555556	214.637522222222	520	109.2	10.4	0
243.642	4.00399999999999	25	valuation	296	4	227.07772962963	224.495862962963	211.274185185185	35	1.463	7.308	24.843
247.646	0.609000000000009	25	rating	296	4	227.07772962963	224.495862962963	211.274185185185	35	1.463	7.308	24.843
248.255	0	25	response	296	4	227.07772962963	224.495862962963	211.274185185185	35	1.463	7.308	24.843
248.255	0.5	25	feedback	296	4	227.07772962963	224.495862962963	211.274185185185	35	1.463	7.308	24.843
252.382	4.00400000000002	26	valuation	568	3	229.324311111111	198.779666666667	188.4166	380	92.416	96.9	6.46
256.386	1.62199999999996	26	rating	568	3	229.324311111111	198.779666666667	188.4166	380	92.416	96.9	6.46
258.008	0	26	response	568	3	229.324311111111	198.779666666667	188.4166	380	92.416	96.9	6.46
258.008	0.5	26	feedback	568	3	229.324311111111	198.779666666667	188.4166	380	92.416	96.9	6.46
264.737	4.00999999999999	27	valuation	288	2	243.726974074074	208.497011111111	177.056444444444	80	0.992	0.128	6.008
268.747	0.72199999999998	27	rating	288	2	243.726974074074	208.497011111111	177.056444444444	80	0.992	0.128	6.008
269.469	0	27	response	288	2	243.726974074074	208.497011111111	177.056444444444	80	0.992	0.128	6.008
269.469	0.5	27	feedback	288	2	243.726974074074	208.497011111111	177.056444444444	80	0.992	0.128	6.008
275.682	4.00399999999996	28	valuation	61	4	217.738881481481	194.702925925926	183.2717	550	36.025	31.02	116.985
279.686	0.511000000000024	28	rating	61	4	217.738881481481	194.702925925926	183.2717	550	36.025	31.02	116.985
280.197	0	28	response	61	4	217.738881481481	194.702925925926	183.2717	550	36.025	31.02	116.985
280.197	0.5	28	feedback	61	4	217.738881481481	194.702925925926	183.2717	550	36.025	31.02	116.985
288.738	4.005	29	valuation	542	1	221.90877037037	218.548407407407	205.845562962963	250	4.75	58.75	1
292.743	2.05099999999999	29	rating	542	1	221.90877037037	218.548407407407	205.845562962963	250	4.75	58.75	1
294.794	0	29	response	542	1	221.90877037037	218.548407407407	205.845562962963	250	4.75	58.75	1
294.794	0.5	29	feedback	542	1	221.90877037037	218.548407407407	205.845562962963	250	4.75	58.75	1
299.705	4.005	30	valuation	144	4	219.844614814815	200.664633333333	183.479592592593	800	45.6	40.8	104
303.71	0.638000000000034	30	rating	144	4	219.844614814815	200.664633333333	183.479592592593	800	45.6	40.8	104
304.348	0	30	response	144	4	219.844614814815	200.664633333333	183.479592592593	800	45.6	40.8	104
304.348	0.5	30	feedback	144	4	219.844614814815	200.664633333333	183.479592592593	800	45.6	40.8	104
311.985	4.005	31	valuation	377	1	239.679737037037	207.307562962963	170.026059259259	60	4.8	11.82	27.54
315.99	0.757999999999981	31	rating	377	1	239.679737037037	207.307562962963	170.026059259259	60	4.8	11.82	27.54
316.748	0	31	response	377	1	239.679737037037	207.307562962963	170.026059259259	60	4.8	11.82	27.54
316.748	0.5	31	feedback	377	1	239.679737037037	207.307562962963	170.026059259259	60	4.8	11.82	27.54
323.202	4.00299999999999	32	valuation	504	2	237.865848148148	215.573244444445	178.105	10	0.57	3.07	5.73
327.205	0.576999999999998	32	rating	504	2	237.865848148148	215.573244444445	178.105	10	0.57	3.07	5.73
327.782	0	32	response	504	2	237.865848148148	215.573244444445	178.105	10	0.57	3.07	5.73
327.782	0.5	32	feedback	504	2	237.865848148148	215.573244444445	178.105	10	0.57	3.07	5.73
333.715	4.00400000000002	33	valuation	429	1	244.330088888889	229.853285185185	184.999911111111	170	2.04	0.51	9.01
337.719	0.571000000000026	33	rating	429	1	244.330088888889	229.853285185185	184.999911111111	170	2.04	0.51	9.01
338.29	0	33	response	429	1	244.330088888889	229.853285185185	184.999911111111	170	2.04	0.51	9.01
338.29	0.5	33	feedback	429	1	244.330088888889	229.853285185185	184.999911111111	170	2.04	0.51	9.01
346.313	4.00700000000001	34	valuation	230	2	242.721044444444	217.309944444444	187.067733333333	1360	9.792	1.904	90.032
350.32	1.87799999999999	34	rating	230	2	242.721044444444	217.309944444444	187.067733333333	1360	9.792	1.904	90.032
352.198	0	34	response	230	2	242.721044444444	217.309944444444	187.067733333333	1360	9.792	1.904	90.032
352.198	0.5	34	feedback	230	2	242.721044444444	217.309944444444	187.067733333333	1360	9.792	1.904	90.032
359.565	4.00400000000002	35	valuation	526	2	213.546388888889	205.332551851852	178.504792592593	230	3.634	5.267	11.339
363.569	0.649000000000001	35	rating	526	2	213.546388888889	205.332551851852	178.504792592593	230	3.634	5.267	11.339
364.218	0	35	response	526	2	213.546388888889	205.332551851852	178.504792592593	230	3.634	5.267	11.339
364.218	0.5	35	feedback	526	2	213.546388888889	205.332551851852	178.504792592593	230	3.634	5.267	11.339
370.282	4.00400000000002	36	valuation	245	3	236.351107407407	213.134562962963	179.092744444444	560	4.032	0.784	37.072
374.286	0.726999999999975	36	rating	245	3	236.351107407407	213.134562962963	179.092744444444	560	4.032	0.784	37.072
375.013	0	36	response	245	3	236.351107407407	213.134562962963	179.092744444444	560	4.032	0.784	37.072
375.013	0.5	36	feedback	245	3	236.351107407407	213.134562962963	179.092744444444	560	4.032	0.784	37.072
382.787	4.00900000000001	37	valuation	250	1	225.751803703704	230.205974074074	219.956911111111	500	10.75	0.65	8.15
386.796	0.557999999999993	37	rating	250	1	225.751803703704	230.205974074074	219.956911111111	500	10.75	0.65	8.15
387.354	0	37	response	250	1	225.751803703704	230.205974074074	219.956911111111	500	10.75	0.65	8.15
387.354	0.5	37	feedback	250	1	225.751803703704	230.205974074074	219.956911111111	500	10.75	0.65	8.15
391.871	4.005	38	valuation	160	3	225.912862962963	218.56677037037	216.687185185185	50	4.2	10.75	32.4
395.876	0.646000000000015	38	rating	160	3	225.912862962963	218.56677037037	216.687185185185	50	4.2	10.75	32.4
396.522	0	38	response	160	3	225.912862962963	218.56677037037	216.687185185185	50	4.2	10.75	32.4
396.522	0.5	38	feedback	160	3	225.912862962963	218.56677037037	216.687185185185	50	4.2	10.75	32.4
404.044	4.00900000000001	39	valuation	184	4	229.436533333333	217.155248148148	204.94587037037	170	11.56	57.12	85.51
408.053	1.20400000000001	39	rating	184	4	229.436533333333	217.155248148148	204.94587037037	170	11.56	57.12	85.51
409.257	0	39	response	184	4	229.436533333333	217.155248148148	204.94587037037	170	11.56	57.12	85.51
409.257	0.5	39	feedback	184	4	229.436533333333	217.155248148148	204.94587037037	170	11.56	57.12	85.51
414.279	4.00400000000002	40	valuation	171	4	225.838885185185	222.008844444444	220.679944444444	19.5	0.585	1.95	13.455
418.283	0.567999999999984	40	rating	171	4	225.838885185185	222.008844444444	220.679944444444	19.5	0.585	1.95	13.455
418.851	0	40	response	171	4	225.838885185185	222.008844444444	220.679944444444	19.5	0.585	1.95	13.455
418.851	0.5	40	feedback	171	4	225.838885185185	222.008844444444	220.679944444444	19.5	0.585	1.95	13.455
424.668	4.005	41	valuation	404	4	240.598596296296	215.776155555556	187.599255555556	660	2.244	0	75.438
428.673	0.673000000000002	41	rating	404	4	240.598596296296	215.776155555556	187.599255555556	660	2.244	0	75.438
429.346	0	41	response	404	4	240.598596296296	215.776155555556	187.599255555556	660	2.244	0	75.438
429.346	0.5	41	feedback	404	4	240.598596296296	215.776155555556	187.599255555556	660	2.244	0	75.438
436.467	4.00400000000002	42	valuation	306	3	234.096081481481	192.577996296296	157.746648148148	230	4.6	15.433	27.83
440.471	0.548000000000002	42	rating	306	3	234.096081481481	192.577996296296	157.746648148148	230	4.6	15.433	27.83
441.019	0	42	response	306	3	234.096081481481	192.577996296296	157.746648148148	230	4.6	15.433	27.83
441.019	0.5	42	feedback	306	3	234.096081481481	192.577996296296	157.746648148148	230	4.6	15.433	27.83
449.183	4.00999999999999	43	valuation	312	3	237.817114814815	229.681992592593	220.793374074074	235	31.114	3.4075	9.4
453.193	1.08100000000002	43	rating	312	3	237.817114814815	229.681992592593	220.793374074074	235	31.114	3.4075	9.4
454.274	0	43	response	312	3	237.817114814815	229.681992592593	220.793374074074	235	31.114	3.4075	9.4
454.274	0.5	43	feedback	312	3	237.817114814815	229.681992592593	220.793374074074	235	31.114	3.4075	9.4
459.686	4.00400000000002	44	valuation	452	3	236.400237037037	207.367988888889	195.907403703704	1800	10.8	3.6	149.04
463.69	0.935000000000002	44	rating	452	3	236.400237037037	207.367988888889	195.907403703704	1800	10.8	3.6	149.04
464.625	0	44	response	452	3	236.400237037037	207.367988888889	195.907403703704	1800	10.8	3.6	149.04
464.625	0.5	44	feedback	452	3	236.400237037037	207.367988888889	195.907403703704	1800	10.8	3.6	149.04
471.49	4.00400000000002	45	valuation	20	3	231.082603703704	212.621714814815	188.195388888889	300	20.01	39.99	125.01
475.494	0.593999999999994	45	rating	20	3	231.082603703704	212.621714814815	188.195388888889	300	20.01	39.99	125.01
476.088	0	45	response	20	3	231.082603703704	212.621714814815	188.195388888889	300	20.01	39.99	125.01
476.088	0.5	45	feedback	20	3	231.082603703704	212.621714814815	188.195388888889	300	20.01	39.99	125.01
479.542	4.00400000000002	46	valuation	159	4	197.329748148148	181.536988888889	176.506477777778	48	2.64	15.888	21.84
483.546	0.533999999999992	46	rating	159	4	197.329748148148	181.536988888889	176.506477777778	48	2.64	15.888	21.84
484.08	0	46	response	159	4	197.329748148148	181.536988888889	176.506477777778	48	2.64	15.888	21.84
484.08	0.5	46	feedback	159	4	197.329748148148	181.536988888889	176.506477777778	48	2.64	15.888	21.84
492.38	4.00400000000002	47	valuation	23	4	229.752911111111	215.786466666667	200.357874074074	200	29.34	40.52	12.56
496.384	0.673999999999978	47	rating	23	4	229.752911111111	215.786466666667	200.357874074074	200	29.34	40.52	12.56
497.058	0	47	response	23	4	229.752911111111	215.786466666667	200.357874074074	200	29.34	40.52	12.56
497.058	0.5	47	feedback	23	4	229.752911111111	215.786466666667	200.357874074074	200	29.34	40.52	12.56
