onset	duration	trial_id	trial_type	image_id	rating_value	red	green	blue	gram	protein	fat	carb
10.029	4.004	1	valuation	428	3	204.3434	208.816737037037	187.536203703704	250	5	0.3	6.5
14.033	0.737	1	rating	428	3	204.3434	208.816737037037	187.536203703704	250	5	0.3	6.5
14.77	0	1	response	428	3	204.3434	208.816737037037	187.536203703704	250	5	0.3	6.5
14.77	0.5	1	feedback	428	3	204.3434	208.816737037037	187.536203703704	250	5	0.3	6.5
21.513	4.004	2	valuation	515	1	246.682818518519	241.276377777778	211.615737037037	200	57.4	60	0
25.517	0.698	2	rating	515	1	246.682818518519	241.276377777778	211.615737037037	200	57.4	60	0
26.215	0	2	response	515	1	246.682818518519	241.276377777778	211.615737037037	200	57.4	60	0
26.215	0.5	2	feedback	515	1	246.682818518519	241.276377777778	211.615737037037	200	57.4	60	0
34.117	4.005	3	valuation	74	2	205.973988888889	197.97622962963	195.076896296296	1300	50.7	157.3	419.9
38.122	0.770000000000003	3	rating	74	2	205.973988888889	197.97622962963	195.076896296296	1300	50.7	157.3	419.9
38.892	0	3	response	74	2	205.973988888889	197.97622962963	195.076896296296	1300	50.7	157.3	419.9
38.892	0.5	3	feedback	74	2	205.973988888889	197.97622962963	195.076896296296	1300	50.7	157.3	419.9
41.882	4.004	4	valuation	544	1	250.596337037037	210.284177777778	204.014044444444	150	29.4	9	0.15
45.886	0.634999999999998	4	rating	544	1	250.596337037037	210.284177777778	204.014044444444	150	29.4	9	0.15
46.521	0	4	response	544	1	250.596337037037	210.284177777778	204.014044444444	150	29.4	9	0.15
46.521	0.5	4	feedback	544	1	250.596337037037	210.284177777778	204.014044444444	150	29.4	9	0.15
51.934	4.005	5	valuation	483	3	223.797618518518	207.292855555556	198.715448148148	340	19.38	24.82	48.28
55.939	0.594999999999999	5	rating	483	3	223.797618518518	207.292855555556	198.715448148148	340	19.38	24.82	48.28
56.534	0	5	response	483	3	223.797618518518	207.292855555556	198.715448148148	340	19.38	24.82	48.28
56.534	0.5	5	feedback	483	3	223.797618518518	207.292855555556	198.715448148148	340	19.38	24.82	48.28
60.264	4.004	6	valuation	281	1	240.906259259259	242.674366666667	221.759122222222	100	1	0.3	15.6
64.268	0.557999999999993	6	rating	281	1	240.906259259259	242.674366666667	221.759122222222	100	1	0.3	15.6
64.826	0	6	response	281	1	240.906259259259	242.674366666667	221.759122222222	100	1	0.3	15.6
64.826	0.5	6	feedback	281	1	240.906259259259	242.674366666667	221.759122222222	100	1	0.3	15.6
68.162	4.005	7	valuation	63	3	235.200085185185	226.835807407407	220.049166666667	40	5.24	3	27.2
72.167	0.582999999999998	7	rating	63	3	235.200085185185	226.835807407407	220.049166666667	40	5.24	3	27.2
72.75	0	7	response	63	3	235.200085185185	226.835807407407	220.049166666667	40	5.24	3	27.2
72.75	0.5	7	feedback	63	3	235.200085185185	226.835807407407	220.049166666667	40	5.24	3	27.2
75.556	4.004	8	valuation	187	3	243.599374074074	219.512066666667	207.100203703704	70	3.64	13.16	25.13
79.56	0.765999999999991	8	rating	187	3	243.599374074074	219.512066666667	207.100203703704	70	3.64	13.16	25.13
80.326	0	8	response	187	3	243.599374074074	219.512066666667	207.100203703704	70	3.64	13.16	25.13
80.326	0.5	8	feedback	187	3	243.599374074074	219.512066666667	207.100203703704	70	3.64	13.16	25.13
88.111	4.00399999999999	9	valuation	176	1	235.462822222222	218.954396296296	216.680240740741	250	42.5	80.325	0.55
92.115	0.768000000000001	9	rating	176	1	235.462822222222	218.954396296296	216.680240740741	250	42.5	80.325	0.55
92.883	0	9	response	176	1	235.462822222222	218.954396296296	216.680240740741	250	42.5	80.325	0.55
92.883	0.5	9	feedback	176	1	235.462822222222	218.954396296296	216.680240740741	250	42.5	80.325	0.55
101.433	4.00699999999999	10	valuation	185	2	238.066225925926	220.562592592593	202.88197037037	300	45.57	79.11	0.84
105.44	0.897000000000006	10	rating	185	2	238.066225925926	220.562592592593	202.88197037037	300	45.57	79.11	0.84
106.337	0	10	response	185	2	238.066225925926	220.562592592593	202.88197037037	300	45.57	79.11	0.84
106.337	0.5	10	feedback	185	2	238.066225925926	220.562592592593	202.88197037037	300	45.57	79.11	0.84
110.837	4.00399999999999	11	valuation	409	1	219.765203703704	214.266048148148	206.449322222222	250	46.25	30	0
114.841	0.759	11	rating	409	1	219.765203703704	214.266048148148	206.449322222222	250	46.25	30	0
115.6	0	11	response	409	1	219.765203703704	214.266048148148	206.449322222222	250	46.25	30	0
115.6	0.5	11	feedback	409	1	219.765203703704	214.266048148148	206.449322222222	250	46.25	30	0
121.535	4.006	12	valuation	325	1	219.106851851852	207.999344444445	180.675533333333	150	0.9	0.45	17.4
125.541	0.710000000000008	12	rating	325	1	219.106851851852	207.999344444445	180.675533333333	150	0.9	0.45	17.4
126.251	0	12	response	325	1	219.106851851852	207.999344444445	180.675533333333	150	0.9	0.45	17.4
126.251	0.5	12	feedback	325	1	219.106851851852	207.999344444445	180.675533333333	150	0.9	0.45	17.4
131.161	4.00399999999999	13	valuation	354	2	208.062944444444	184.856207407407	173.836218518518	65	1.378	4.1795	11.96
135.165	1.108	13	rating	354	2	208.062944444444	184.856207407407	173.836218518518	65	1.378	4.1795	11.96
136.273	0	13	response	354	2	208.062944444444	184.856207407407	173.836218518518	65	1.378	4.1795	11.96
136.273	0.5	13	feedback	354	2	208.062944444444	184.856207407407	173.836218518518	65	1.378	4.1795	11.96
144.454	4.00399999999999	14	valuation	299	3	201.18262962963	197.734925925926	162.005540740741	380	13.414	1.444	19
148.458	0.657000000000011	14	rating	299	3	201.18262962963	197.734925925926	162.005540740741	380	13.414	1.444	19
149.115	0	14	response	299	3	201.18262962963	197.734925925926	162.005540740741	380	13.414	1.444	19
149.115	0.5	14	feedback	299	3	201.18262962963	197.734925925926	162.005540740741	380	13.414	1.444	19
154.135	4.00300000000001	15	valuation	268	3	236.044296296296	239.224655555556	218.502122222222	536	6.968	0.3752	12.864
158.138	0.84899999999999	15	rating	268	3	236.044296296296	239.224655555556	218.502122222222	536	6.968	0.3752	12.864
158.987	0	15	response	268	3	236.044296296296	239.224655555556	218.502122222222	536	6.968	0.3752	12.864
158.987	0.5	15	feedback	268	3	236.044296296296	239.224655555556	218.502122222222	536	6.968	0.3752	12.864
165.221	4.00399999999999	16	valuation	241	4	243.282040740741	236.463888888889	225.625177777778	300	1.41	0.84	34.59
169.225	0.846000000000004	16	rating	241	4	243.282040740741	236.463888888889	225.625177777778	300	1.41	0.84	34.59
170.071	0	16	response	241	4	243.282040740741	236.463888888889	225.625177777778	300	1.41	0.84	34.59
170.071	0.5	16	feedback	241	4	243.282040740741	236.463888888889	225.625177777778	300	1.41	0.84	34.59
173.93	4.00399999999999	17	valuation	180	3	240.119981481481	230.448837037037	223.464896296296	25	1.725	2.975	16.2
177.934	1.15200000000002	17	rating	180	3	240.119981481481	230.448837037037	223.464896296296	25	1.725	2.975	16.2
179.086	0	17	response	180	3	240.119981481481	230.448837037037	223.464896296296	25	1.725	2.975	16.2
179.086	0.5	17	feedback	180	3	240.119981481481	230.448837037037	223.464896296296	25	1.725	2.975	16.2
184.236	4.00500000000002	18	valuation	16	3	231.443377777778	213.845492592593	198.130418518519	800	62.88	160	360
188.241	0.964999999999975	18	rating	16	3	231.443377777778	213.845492592593	198.130418518519	800	62.88	160	360
189.206	0	18	response	16	3	231.443377777778	213.845492592593	198.130418518519	800	62.88	160	360
189.206	0.5	18	feedback	16	3	231.443377777778	213.845492592593	198.130418518519	800	62.88	160	360
195.021	4.00700000000001	19	valuation	322	3	221.623762962963	196.456659259259	165.997151851852	850	130.22	51	29.155
199.028	0.801000000000016	19	rating	322	3	221.623762962963	196.456659259259	165.997151851852	850	130.22	51	29.155
199.829	0	19	response	322	3	221.623762962963	196.456659259259	165.997151851852	850	130.22	51	29.155
199.829	0.5	19	feedback	322	3	221.623762962963	196.456659259259	165.997151851852	850	130.22	51	29.155
207.863	4.00700000000001	20	valuation	210	1	221.178611111111	200.222703703704	200.344096296296	200	2.4	0.6	9.2
211.87	0.879999999999995	20	rating	210	1	221.178611111111	200.222703703704	200.344096296296	200	2.4	0.6	9.2
212.75	0	20	response	210	1	221.178611111111	200.222703703704	200.344096296296	200	2.4	0.6	9.2
212.75	0.5	20	feedback	210	1	221.178611111111	200.222703703704	200.344096296296	200	2.4	0.6	9.2
217.397	4.00400000000002	21	valuation	239	3	238.285944444444	218.642877777778	197.982814814815	600	7.32	2.22	29.22
221.401	0.900999999999982	21	rating	239	3	238.285944444444	218.642877777778	197.982814814815	600	7.32	2.22	29.22
222.302	0	21	response	239	3	238.285944444444	218.642877777778	197.982814814815	600	7.32	2.22	29.22
222.302	0.5	21	feedback	239	3	238.285944444444	218.642877777778	197.982814814815	600	7.32	2.22	29.22
226.283	4.00400000000002	22	valuation	140	3	225.786892592593	215.802959259259	208.415466666667	65	2.47	10.985	15.99
230.287	0.852000000000004	22	rating	140	3	225.786892592593	215.802959259259	208.415466666667	65	2.47	10.985	15.99
231.139	0	22	response	140	3	225.786892592593	215.802959259259	208.415466666667	65	2.47	10.985	15.99
231.139	0.5	22	feedback	140	3	225.786892592593	215.802959259259	208.415466666667	65	2.47	10.985	15.99
238.248	4.00900000000001	23	valuation	486	2	228.249133333333	213.26007037037	195.862514814815	540	50.274	64.638	103.464
242.257	0.966000000000008	23	rating	486	2	228.249133333333	213.26007037037	195.862514814815	540	50.274	64.638	103.464
243.223	0	23	response	486	2	228.249133333333	213.26007037037	195.862514814815	540	50.274	64.638	103.464
243.223	0.5	23	feedback	486	2	228.249133333333	213.26007037037	195.862514814815	540	50.274	64.638	103.464
250.742	4.00500000000002	24	valuation	534	1	241.210433333333	235.60722962963	202.995262962963	130	1.04	0.546	16.38
254.747	0.940999999999974	24	rating	534	1	241.210433333333	235.60722962963	202.995262962963	130	1.04	0.546	16.38
255.688	0	24	response	534	1	241.210433333333	235.60722962963	202.995262962963	130	1.04	0.546	16.38
255.688	0.5	24	feedback	534	1	241.210433333333	235.60722962963	202.995262962963	130	1.04	0.546	16.38
259.926	4.00400000000002	25	valuation	477	3	223.237314814815	225.169562962963	212.872111111111	350	2.24	0.63	6.37
263.93	0.812999999999988	25	rating	477	3	223.237314814815	225.169562962963	212.872111111111	350	2.24	0.63	6.37
264.743	0	25	response	477	3	223.237314814815	225.169562962963	212.872111111111	350	2.24	0.63	6.37
264.743	0.5	25	feedback	477	3	223.237314814815	225.169562962963	212.872111111111	350	2.24	0.63	6.37
270.316	4.00400000000002	26	valuation	122	3	235.540674074074	222.843977777778	193.680155555556	100	5.4	18.5	33.5
274.32	0.937000000000012	26	rating	122	3	235.540674074074	222.843977777778	193.680155555556	100	5.4	18.5	33.5
275.257	0	26	response	122	3	235.540674074074	222.843977777778	193.680155555556	100	5.4	18.5	33.5
275.257	0.5	26	feedback	122	3	235.540674074074	222.843977777778	193.680155555556	100	5.4	18.5	33.5
278.451	4.00799999999998	27	valuation	9	3	232.070888888889	216.652388888889	201.2447	42	3.8178	10.08	23.94
282.459	1.04699999999997	27	rating	9	3	232.070888888889	216.652388888889	201.2447	42	3.8178	10.08	23.94
283.506	0	27	response	9	3	232.070888888889	216.652388888889	201.2447	42	3.8178	10.08	23.94
283.506	0.5	27	feedback	9	3	232.070888888889	216.652388888889	201.2447	42	3.8178	10.08	23.94
291.799	4.00400000000002	28	valuation	179	3	210.192144444444	193.826733333333	179.006907407407	450	23.85	99	217.35
295.803	0.737000000000023	28	rating	179	3	210.192144444444	193.826733333333	179.006907407407	450	23.85	99	217.35
296.54	0	28	response	179	3	210.192144444444	193.826733333333	179.006907407407	450	23.85	99	217.35
296.54	0.5	28	feedback	179	3	210.192144444444	193.826733333333	179.006907407407	450	23.85	99	217.35
302.604	4.00400000000002	29	valuation	425	3	232.791192592593	214.940514814815	198.185377777778	60	3.84	0.6	27.78
306.608	1.03199999999998	29	rating	425	3	232.791192592593	214.940514814815	198.185377777778	60	3.84	0.6	27.78
307.64	0	29	response	425	3	232.791192592593	214.940514814815	198.185377777778	60	3.84	0.6	27.78
307.64	0.5	29	feedback	425	3	232.791192592593	214.940514814815	198.185377777778	60	3.84	0.6	27.78
312.008	4.005	30	valuation	318	3	237.55152962963	224.783759259259	215.41777037037	197	24.822	35.854	18.124
316.013	1.31700000000001	30	rating	318	3	237.55152962963	224.783759259259	215.41777037037	197	24.822	35.854	18.124
317.33	0	30	response	318	3	237.55152962963	224.783759259259	215.41777037037	197	24.822	35.854	18.124
317.33	0.5	30	feedback	318	3	237.55152962963	224.783759259259	215.41777037037	197	24.822	35.854	18.124
320.398	4.00399999999996	31	valuation	460	1	237.957248148148	164.910133333333	143.014777777778	80	0.8	0	2.4
324.402	1.00800000000004	31	rating	460	1	237.957248148148	164.910133333333	143.014777777778	80	0.8	0	2.4
325.41	0	31	response	460	1	237.957248148148	164.910133333333	143.014777777778	80	0.8	0	2.4
325.41	0.5	31	feedback	460	1	237.957248148148	164.910133333333	143.014777777778	80	0.8	0	2.4
332.255	4.00400000000002	32	valuation	355	3	223.183255555556	202.252092592593	177.950788888889	1250	38.75	111.25	365
336.259	0.808999999999969	32	rating	355	3	223.183255555556	202.252092592593	177.950788888889	1250	38.75	111.25	365
337.068	0	32	response	355	3	223.183255555556	202.252092592593	177.950788888889	1250	38.75	111.25	365
337.068	0.5	32	feedback	355	3	223.183255555556	202.252092592593	177.950788888889	1250	38.75	111.25	365
340.546	4.00400000000002	33	valuation	487	3	223.586411111111	217.629103703704	198.619337037037	110	8.8	8.14	45.65
344.55	1.46100000000001	33	rating	487	3	223.586411111111	217.629103703704	198.619337037037	110	8.8	8.14	45.65
346.011	0	33	response	487	3	223.586411111111	217.629103703704	198.619337037037	110	8.8	8.14	45.65
346.011	0.5	33	feedback	487	3	223.586411111111	217.629103703704	198.619337037037	110	8.8	8.14	45.65
352.466	4.00400000000002	34	valuation	163	3	194.470577777778	175.139051851852	168.054074074074	100	5.2	26	48
356.47	1.08499999999998	34	rating	163	3	194.470577777778	175.139051851852	168.054074074074	100	5.2	26	48
357.555	0	34	response	163	3	194.470577777778	175.139051851852	168.054074074074	100	5.2	26	48
357.555	0.5	34	feedback	163	3	194.470577777778	175.139051851852	168.054074074074	100	5.2	26	48
364.161	4.01299999999998	35	valuation	433	3	240.476533333333	216.10922962963	201.709562962963	1200	16.8	2.4	55.2
368.174	0.664000000000044	35	rating	433	3	240.476533333333	216.10922962963	201.709562962963	1200	16.8	2.4	55.2
368.838	0	35	response	433	3	240.476533333333	216.10922962963	201.709562962963	1200	16.8	2.4	55.2
368.838	0.5	35	feedback	433	3	240.476533333333	216.10922962963	201.709562962963	1200	16.8	2.4	55.2
377.27	4.00300000000004	36	valuation	134	3	233.039818518519	219.986803703704	203.065248148148	75	4.65	15.525	36.75
381.273	0.83099999999996	36	rating	134	3	233.039818518519	219.986803703704	203.065248148148	75	4.65	15.525	36.75
382.104	0	36	response	134	3	233.039818518519	219.986803703704	203.065248148148	75	4.65	15.525	36.75
382.104	0.5	36	feedback	134	3	233.039818518519	219.986803703704	203.065248148148	75	4.65	15.525	36.75
387.396	4.00999999999999	37	valuation	497	2	235.62327037037	212.055107407407	196.81682962963	60	12.48	13.08	0.54
391.406	0.678999999999974	37	rating	497	2	235.62327037037	212.055107407407	196.81682962963	60	12.48	13.08	0.54
392.085	0	37	response	497	2	235.62327037037	212.055107407407	196.81682962963	60	12.48	13.08	0.54
392.085	0.5	37	feedback	497	2	235.62327037037	212.055107407407	196.81682962963	60	12.48	13.08	0.54
394.77	4.01900000000001	38	valuation	154	3	230.843148148148	215.923281481481	204.736803703704	20	0.68	0.4	15.96
398.789	0.751000000000033	38	rating	154	3	230.843148148148	215.923281481481	204.736803703704	20	0.68	0.4	15.96
399.54	0	38	response	154	3	230.843148148148	215.923281481481	204.736803703704	20	0.68	0.4	15.96
399.54	0.5	38	feedback	154	3	230.843148148148	215.923281481481	204.736803703704	20	0.68	0.4	15.96
407.169	4.00400000000002	39	valuation	151	3	241.193903703704	224.897437037037	187.470951851852	150	7.95	34.5	78
411.173	1.11200000000002	39	rating	151	3	241.193903703704	224.897437037037	187.470951851852	150	7.95	34.5	78
412.285	0	39	response	151	3	241.193903703704	224.897437037037	187.470951851852	150	7.95	34.5	78
412.285	0.5	39	feedback	151	3	241.193903703704	224.897437037037	187.470951851852	150	7.95	34.5	78
418.609	4.005	40	valuation	80	3	241.8799	231.539851851852	216.649044444444	120	9.6	13.872	44.76
422.614	0.611000000000047	40	rating	80	3	241.8799	231.539851851852	216.649044444444	120	9.6	13.872	44.76
423.225	0	40	response	80	3	241.8799	231.539851851852	216.649044444444	120	9.6	13.872	44.76
423.225	0.5	40	feedback	80	3	241.8799	231.539851851852	216.649044444444	120	9.6	13.872	44.76
430.481	4.00799999999998	41	valuation	173	2	238.459222222222	234.629877777778	232.747222222222	31.5	3.15	10.71	16.695
434.489	0.80400000000003	41	rating	173	2	238.459222222222	234.629877777778	232.747222222222	31.5	3.15	10.71	16.695
435.293	0	41	response	173	2	238.459222222222	234.629877777778	232.747222222222	31.5	3.15	10.71	16.695
435.293	0.5	41	feedback	173	2	238.459222222222	234.629877777778	232.747222222222	31.5	3.15	10.71	16.695
442.292	4.00500000000005	42	valuation	90	4	232.692596296296	223.939966666667	211.016548148148	360	18	79.2	154.8
446.297	0.625	42	rating	90	4	232.692596296296	223.939966666667	211.016548148148	360	18	79.2	154.8
446.922	0	42	response	90	4	232.692596296296	223.939966666667	211.016548148148	360	18	79.2	154.8
446.922	0.5	42	feedback	90	4	232.692596296296	223.939966666667	211.016548148148	360	18	79.2	154.8
449.464	4.005	43	valuation	554	1	218.795292592593	200.597207407407	189.157607407407	300	60	24	3
453.469	0.999000000000024	43	rating	554	1	218.795292592593	200.597207407407	189.157607407407	300	60	24	3
454.468	0	43	response	554	1	218.795292592593	200.597207407407	189.157607407407	300	60	24	3
454.468	0.5	43	feedback	554	1	218.795292592593	200.597207407407	189.157607407407	300	60	24	3
460.176	4.00400000000002	44	valuation	60	3	233.02332962963	218.918403703704	196.226703703704	220	8.25	37.488	75.009
464.18	0.704000000000008	44	rating	60	3	233.02332962963	218.918403703704	196.226703703704	220	8.25	37.488	75.009
464.884	0	44	response	60	3	233.02332962963	218.918403703704	196.226703703704	220	8.25	37.488	75.009
464.884	0.5	44	feedback	60	3	233.02332962963	218.918403703704	196.226703703704	220	8.25	37.488	75.009
472.264	4.00799999999998	45	valuation	274	3	216.618640740741	231.883585185185	202.364651851852	100	2.52	0.3	0.55
476.272	0.732000000000028	45	rating	274	3	216.618640740741	231.883585185185	202.364651851852	100	2.52	0.3	0.55
477.004	0	45	response	274	3	216.618640740741	231.883585185185	202.364651851852	100	2.52	0.3	0.55
477.004	0.5	45	feedback	274	3	216.618640740741	231.883585185185	202.364651851852	100	2.52	0.3	0.55
481.785	4.00399999999996	46	valuation	243	1	224.162848148148	201.069314814815	190.81787037037	110	0.858	0.429	5.863
485.789	0.913999999999987	46	rating	243	1	224.162848148148	201.069314814815	190.81787037037	110	0.858	0.429	5.863
486.703	0	46	response	243	1	224.162848148148	201.069314814815	190.81787037037	110	0.858	0.429	5.863
486.703	0.5	46	feedback	243	1	224.162848148148	201.069314814815	190.81787037037	110	0.858	0.429	5.863
490.825	4.00400000000002	47	valuation	358	1	249.352437037037	240.240362962963	221.415944444444	250	2.5	0	22.5
494.829	0.802999999999997	47	rating	358	1	249.352437037037	240.240362962963	221.415944444444	250	2.5	0	22.5
495.632	0	47	response	358	1	249.352437037037	240.240362962963	221.415944444444	250	2.5	0	22.5
495.632	0.5	47	feedback	358	1	249.352437037037	240.240362962963	221.415944444444	250	2.5	0	22.5
